timestamp,acc_x,acc_y,acc_z,vel_x,vel_y,vel_z,pos_x,pos_y,pos_z,correct_acc_x,correct_acc_y,correct_acc_z, correct_vel_x,correct_vel_y,correct_vel_z, correct_pos_x,correct_pos_y,correct_pos_z, depth_by_pressure,orientation_x, orientation_y, orientation_z, truth_orientation_x, truth_orientation_y, truth_orientation_z
0.375564,0.000000,0.000000,0.000000,0.000000,0.000000,0.000000,0.000000,0.000000,0.000000,-0.000000,-0.000000,-0.000000,-0.000000,-0.000000,-0.000020,2.000000, 2.012455, 0.119576, -0.000000,0.000000, 0.000000, 0.000000, -0.015029, 0.000000, -0.000015
0.414239,0.000000,0.000000,0.000000,0.000000,0.000000,0.000000,0.000000,0.000000,0.000000,-0.000000,0.000001,0.000027,-0.000000,0.000000,-0.000018,2.000000, 2.012455, 0.119576, 0.003771,0.000000, 0.000000, 0.000000, -0.015029, 0.000000, -0.000015
0.430044,0.000000,0.000000,0.000000,0.000000,0.000000,0.000000,0.000000,0.000000,0.000000,-0.000000,0.000002,0.000069,-0.000000,0.000000,-0.000017,2.000000, 2.012455, 0.119577, 0.006325,0.000000, 0.000000, 0.000000, -0.015029, 0.000000, -0.000015
0.439615,0.000000,0.000000,0.000000,0.000000,0.000000,0.000000,0.000000,0.000000,0.000000,-0.000000,0.000003,0.000108,-0.000000,0.000000,-0.000016,2.000000, 2.012455, 0.119577, 0.008740,0.000000, 0.000000, 0.000000, -0.015029, 0.000000, -0.000015
0.452900,0.000000,0.000000,0.000000,0.000000,0.000000,0.000000,0.000000,0.000000,0.000000,-0.000000,0.000003,0.000119,-0.000000,0.000000,-0.000015,2.000000, 2.012455, 0.119577, -0.001690,0.000000, 0.000000, 0.000000, -0.015028, -0.000000, -0.000015
0.462776,0.000000,0.000000,0.000000,0.000000,0.000000,0.000000,0.000000,0.000000,0.000000,-0.000000,0.000008,0.000291,-0.000000,0.000000,-0.000012,2.000000, 2.012455, 0.119577, -0.003631,0.000000, 0.000000, 0.000000, -0.015028, -0.000000, -0.000015
0.471174,0.000000,0.000000,0.000000,0.000000,0.000000,0.000000,0.000000,0.000000,0.000000,-0.000000,0.000010,0.000345,-0.000000,0.000000,-0.000009,2.000000, 2.012455, 0.119578, 0.002553,0.000000, 0.000000, 0.000000, -0.015028, -0.000000, -0.000015
0.480575,0.000000,0.000000,0.000000,0.000000,0.000000,0.000000,0.000000,0.000000,0.000000,-0.000000,0.000009,0.000321,-0.000000,0.000000,-0.000006,2.000000, 2.012455, 0.119578, -0.002694,0.000000, 0.000000, 0.000000, -0.015028, -0.000000, -0.000015
0.493387,0.000000,0.000000,0.000000,0.000000,0.000000,0.000000,0.000000,0.000000,0.000000,-0.000000,0.000007,0.000250,-0.000000,0.000000,-0.000003,2.000000, 2.012455, 0.119578, 0.007436,0.000000, 0.000000, 0.000000, -0.015028, 0.000000, -0.000015
0.502544,0.000000,0.000000,0.000000,0.000000,0.000000,0.000000,0.000000,0.000000,0.000000,-0.000000,0.000010,0.000350,-0.000000,0.000001,0.000000,2.000000, 2.012455, 0.119578, -0.004252,0.000000, 0.000000, 0.000000, -0.015028, 0.000000, -0.000015
0.512263,0.000000,0.000000,0.000000,0.000000,0.000000,0.000000,0.000000,0.000000,0.000000,-0.000000,0.000009,0.000324,-0.000000,0.000001,0.000004,2.000000, 2.012455, 0.119578, 0.005897,0.000000, 0.000000, 0.000000, -0.015028, 0.000000, -0.000015
0.520607,0.000000,0.000000,0.000000,0.000000,0.000000,0.000000,0.000000,0.000000,0.000000,-0.000000,0.000011,0.000380,-0.000000,0.000001,0.000007,2.000000, 2.012455, 0.119578, -0.001160,0.000000, 0.000000, 0.000000, -0.015028, 0.000000, -0.000015
0.528971,0.000000,0.000000,0.000000,0.000000,0.000000,0.000000,0.000000,0.000000,0.000000,-0.000000,0.000011,0.000379,-0.000000,0.000001,0.000010,2.000000, 2.012455, 0.119577, 0.006273,0.000000, 0.000000, 0.000000, -0.015028, 0.000000, -0.000015
0.538161,0.000000,0.000000,0.000000,0.000000,0.000000,0.000000,0.000000,0.000000,0.000000,-0.000000,0.000009,0.000333,-0.000000,0.000001,0.000013,2.000000, 2.012455, 0.119577, 0.006403,0.000000, 0.000000, 0.000000, -0.015028, 0.000000, -0.000015
0.543404,0.000000,0.000000,0.000000,0.000000,0.000000,0.000000,0.000000,0.000000,0.000000,-0.000000,0.000016,0.000553,-0.000000,0.000001,0.000016,2.000000, 2.012455, 0.119577, -0.000069,0.000000, 0.000000, 0.000000, -0.015029, 0.000000, -0.000015
0.547375,0.000000,0.000000,0.000000,0.000000,0.000000,0.000000,0.000000,0.000000,0.000000,-0.000000,0.000013,0.000486,-0.000000,0.000001,0.000018,2.000000, 2.012455, 0.119577, 0.002766,0.000000, 0.000000, 0.000000, -0.015029, 0.000000, -0.000015
0.547549,0.000000,0.000000,0.000000,0.000000,0.000000,0.000000,0.000000,0.000000,0.000000,-0.000005,0.000105,0.004263,-0.000000,0.000001,0.000019,2.000000, 2.012455, 0.119576, 0.002669,0.000000, 0.000000, 0.000000, -0.015029, 0.000000, -0.000015
0.547667,0.000000,0.000000,0.000000,0.000000,0.000000,0.000000,0.000000,0.000000,0.000000,-0.000009,0.000260,0.009158,-0.000000,0.000001,0.000020,2.000000, 2.012455, 0.119576, 0.008850,0.000000, 0.000000, 0.000000, -0.015030, 0.000001, -0.000015
0.547783,0.000000,0.000000,0.000000,0.000000,0.000000,0.000000,0.000000,0.000000,0.000000,-0.000002,0.000267,0.010346,-0.000000,0.000001,0.000021,2.000000, 2.012455, 0.119575, 0.001105,0.000000, 0.000000, 0.000000, -0.015030, 0.000001, -0.000015
0.547902,0.000000,0.000000,0.000000,0.000000,0.000000,0.000000,0.000000,0.000000,0.000000,-0.000010,0.000251,0.009750,-0.000000,0.000001,0.000022,2.000000, 2.012455, 0.119575, -0.001635,0.000000, 0.000000, 0.000000, -0.015030, 0.000001, -0.000015
0.548029,0.000000,0.000000,0.000000,0.000000,0.000000,0.000000,0.000000,0.000000,0.000000,-0.000010,0.000180,0.006326,-0.000000,0.000001,0.000023,2.000000, 2.012455, 0.119574, 0.007621,0.000000, 0.000000, 0.000000, -0.015031, 0.000001, -0.000015
0.548204,0.000000,0.000000,0.000000,0.000000,0.000000,0.000000,0.000000,0.000000,0.000000,-0.000007,0.000102,0.004180,-0.000000,0.000001,0.000024,2.000000, 2.012455, 0.119574, 0.002014,0.000000, 0.000000, 0.000000, -0.015031, 0.000001, -0.000015
0.548361,0.000000,0.000000,0.000000,0.000000,0.000000,0.000000,0.000000,0.000000,0.000000,0.000006,0.000148,0.004678,-0.000000,0.000001,0.000024,2.000000, 2.012455, 0.119574, 0.000218,0.000000, 0.000000, 0.000000, -0.015032, 0.000001, -0.000015
0.548527,0.000000,0.000000,0.000000,0.000000,0.000000,0.000000,0.000000,0.000000,0.000000,0.000002,0.000135,0.002919,-0.000000,0.000001,0.000025,2.000000, 2.012455, 0.119573, 0.007153,0.000000, 0.000000, 0.000000, -0.015032, 0.000001, -0.000015
0.548662,0.000000,0.000000,0.000000,0.000000,0.000000,0.000000,0.000000,0.000000,0.000000,0.000008,0.000042,0.000712,-0.000000,0.000001,0.000025,2.000000, 2.012455, 0.119573, 0.002562,0.000000, 0.000000, 0.000000, -0.015033, 0.000001, -0.000015
0.548813,0.000000,0.000000,0.000000,0.000000,0.000000,0.000000,0.000000,0.000000,0.000000,0.000016,0.000062,0.000616,-0.000000,0.000001,0.000025,2.000000, 2.012455, 0.119572, 0.001780,0.000000, 0.000000, 0.000000, -0.015033, 0.000001, -0.000015
0.548954,0.000000,0.000000,0.000000,0.000000,0.000000,0.000000,0.000000,0.000000,0.000000,0.000005,0.000004,-0.000751,-0.000000,0.000001,0.000025,2.000000, 2.012455, 0.119572, -0.000861,0.000000, 0.000000, 0.000000, -0.015033, 0.000001, -0.000015
0.549078,0.000000,0.000000,0.000000,0.000000,0.000000,0.000000,0.000000,0.000000,0.000000,0.000005,0.000004,-0.000751,-0.000000,0.000001,0.000025,2.000000, 2.012455, 0.119572, -0.007027,0.000000, 0.000000, 0.000000, -0.015033, 0.000001, -0.000015
0.549213,0.000000,0.000000,0.000000,0.000000,0.000000,0.000000,0.000000,0.000000,0.000000,0.000005,0.000004,-0.000751,-0.000000,0.000001,0.000025,2.000000, 2.012455, 0.119572, 0.007477,0.000000, 0.000000, 0.000000, -0.015033, 0.000001, -0.000015
0.549336,0.000000,0.000000,0.000000,0.000000,0.000000,0.000000,0.000000,0.000000,0.000000,0.000005,0.000004,-0.000751,-0.000000,0.000001,0.000025,2.000000, 2.012455, 0.119572, -0.004602,0.000000, 0.000000, 0.000000, -0.015033, 0.000001, -0.000015
0.549454,0.000000,0.000000,0.000000,0.000000,0.000000,0.000000,0.000000,0.000000,0.000000,0.000005,0.000004,-0.000751,-0.000000,0.000001,0.000025,2.000000, 2.012455, 0.119572, 0.004578,0.000000, 0.000000, 0.000000, -0.015033, 0.000001, -0.000015
0.549572,0.000000,0.000000,0.000000,0.000000,0.000000,0.000000,0.000000,0.000000,0.000000,0.000005,0.000004,-0.000751,-0.000000,0.000001,0.000025,2.000000, 2.012455, 0.119572, 0.003088,0.000000, 0.000000, 0.000000, -0.015033, 0.000001, -0.000015
0.549703,0.000000,0.000000,0.000000,0.000000,0.000000,0.000000,0.000000,0.000000,0.000000,0.000005,0.000004,-0.000751,-0.000000,0.000001,0.000025,2.000000, 2.012455, 0.119572, -0.001727,0.000000, 0.000000, 0.000000, -0.015033, 0.000001, -0.000015
0.549821,0.000000,0.000000,0.000000,0.000000,0.000000,0.000000,0.000000,0.000000,0.000000,0.000005,0.000004,-0.000751,-0.000000,0.000001,0.000025,2.000000, 2.012455, 0.119572, 0.002759,0.000000, 0.000000, 0.000000, -0.015033, 0.000001, -0.000015
0.549939,0.000000,0.000000,0.000000,0.000000,0.000000,0.000000,0.000000,0.000000,0.000000,0.000005,0.000004,-0.000751,-0.000000,0.000001,0.000025,2.000000, 2.012455, 0.119572, 0.010105,0.000000, 0.000000, 0.000000, -0.015033, 0.000001, -0.000015
0.550056,0.000000,0.000000,0.000000,0.000000,0.000000,0.000000,0.000000,0.000000,0.000000,0.000005,0.000004,-0.000751,-0.000000,0.000001,0.000025,2.000000, 2.012455, 0.119572, -0.002034,0.000000, 0.000000, 0.000000, -0.015033, 0.000001, -0.000015
0.550190,0.000000,0.000000,0.000000,0.000000,0.000000,0.000000,0.000000,0.000000,0.000000,0.000005,0.000004,-0.000751,-0.000000,0.000001,0.000025,2.000000, 2.012455, 0.119572, 0.010093,0.000000, 0.000000, 0.000000, -0.015033, 0.000001, -0.000015
0.550317,0.000000,0.000000,0.000000,0.000000,0.000000,0.000000,0.000000,0.000000,0.000000,0.000005,0.000004,-0.000751,-0.000000,0.000001,0.000025,2.000000, 2.012455, 0.119572, 0.004368,0.000000, 0.000000, 0.000000, -0.015033, 0.000001, -0.000015
0.550439,0.000000,0.000000,0.000000,0.000000,0.000000,0.000000,0.000000,0.000000,0.000000,0.000005,0.000004,-0.000751,-0.000000,0.000001,0.000025,2.000000, 2.012455, 0.119572, 0.010663,0.000000, 0.000000, 0.000000, -0.015033, 0.000001, -0.000015
0.550562,0.000000,0.000000,0.000000,0.000000,0.000000,0.000000,0.000000,0.000000,0.000000,0.000005,0.000004,-0.000751,-0.000000,0.000001,0.000025,2.000000, 2.012455, 0.119572, 0.006257,0.000000, 0.000000, 0.000000, -0.015033, 0.000001, -0.000015
0.550675,0.000000,0.000000,0.000000,0.000000,0.000000,0.000000,0.000000,0.000000,0.000000,0.000005,0.000004,-0.000751,-0.000000,0.000001,0.000025,2.000000, 2.012455, 0.119572, -0.001244,0.000000, 0.000000, 0.000000, -0.015033, 0.000001, -0.000015
0.550780,0.000000,0.000000,0.000000,0.000000,0.000000,0.000000,0.000000,0.000000,0.000000,0.000005,0.000004,-0.000751,-0.000000,0.000001,0.000025,2.000000, 2.012455, 0.119572, -0.001995,0.000000, 0.000000, 0.000000, -0.015033, 0.000001, -0.000015
0.550848,0.000000,0.000000,0.000000,0.000000,0.000000,0.000000,0.000000,0.000000,0.000000,0.000005,0.000004,-0.000751,-0.000000,0.000001,0.000025,2.000000, 2.012455, 0.119572, -0.003657,0.000000, 0.000000, 0.000000, -0.015033, 0.000001, -0.000015
0.550913,0.000000,0.000000,0.000000,0.000000,0.000000,0.000000,0.000000,0.000000,0.000000,0.000005,0.000004,-0.000751,-0.000000,0.000001,0.000025,2.000000, 2.012455, 0.119572, 0.004114,0.000000, 0.000000, 0.000000, -0.015033, 0.000001, -0.000015
0.550978,0.000000,0.000000,0.000000,0.000000,0.000000,0.000000,0.000000,0.000000,0.000000,0.000005,0.000004,-0.000751,-0.000000,0.000001,0.000025,2.000000, 2.012455, 0.119572, 0.002391,0.000000, 0.000000, 0.000000, -0.015033, 0.000001, -0.000015
0.551043,0.000000,0.000000,0.000000,0.000000,0.000000,0.000000,0.000000,0.000000,0.000000,0.000005,0.000004,-0.000751,-0.000000,0.000001,0.000025,2.000000, 2.012455, 0.119572, 0.002583,0.000000, 0.000000, 0.000000, -0.015033, 0.000001, -0.000015
0.551131,0.000000,0.000000,0.000000,0.000000,0.000000,0.000000,0.000000,0.000000,0.000000,0.000005,0.000004,-0.000751,-0.000000,0.000001,0.000025,2.000000, 2.012455, 0.119572, 0.001420,0.000000, 0.000000, 0.000000, -0.015033, 0.000001, -0.000015
0.551204,0.000000,0.000000,0.000000,0.000000,0.000000,0.000000,0.000000,0.000000,0.000000,0.000005,0.000004,-0.000751,-0.000000,0.000001,0.000025,2.000000, 2.012455, 0.119572, 0.005213,0.000000, 0.000000, 0.000000, -0.015033, 0.000001, -0.000015
0.551269,0.000000,0.000000,0.000000,0.000000,0.000000,0.000000,0.000000,0.000000,0.000000,0.000005,0.000004,-0.000751,-0.000000,0.000001,0.000025,2.000000, 2.012455, 0.119572, 0.004020,0.000000, 0.000000, 0.000000, -0.015033, 0.000001, -0.000015
0.551341,0.000000,0.000000,0.000000,0.000000,0.000000,0.000000,0.000000,0.000000,0.000000,0.000005,0.000004,-0.000751,-0.000000,0.000001,0.000025,2.000000, 2.012455, 0.119572, -0.002420,0.000000, 0.000000, 0.000000, -0.015033, 0.000001, -0.000015
0.551409,0.000000,0.000000,0.000000,0.000000,0.000000,0.000000,0.000000,0.000000,0.000000,0.000005,0.000004,-0.000751,-0.000000,0.000001,0.000025,2.000000, 2.012455, 0.119572, -0.007374,0.000000, 0.000000, 0.000000, -0.015033, 0.000001, -0.000015
0.551485,0.000000,0.000000,0.000000,0.000000,0.000000,0.000000,0.000000,0.000000,0.000000,0.000005,0.000004,-0.000751,-0.000000,0.000001,0.000025,2.000000, 2.012455, 0.119572, 0.007137,0.000000, 0.000000, 0.000000, -0.015033, 0.000001, -0.000015
0.551573,0.000000,0.000000,0.000000,0.000000,0.000000,0.000000,0.000000,0.000000,0.000000,0.000005,0.000004,-0.000751,-0.000000,0.000001,0.000025,2.000000, 2.012455, 0.119572, 0.001756,0.000000, 0.000000, 0.000000, -0.015033, 0.000001, -0.000015
0.551676,0.000000,0.000000,0.000000,0.000000,0.000000,0.000000,0.000000,0.000000,0.000000,0.000005,0.000004,-0.000751,-0.000000,0.000001,0.000025,2.000000, 2.012455, 0.119572, 0.005523,0.000000, 0.000000, 0.000000, -0.015033, 0.000001, -0.000015
0.551789,0.000000,0.000000,0.000000,0.000000,0.000000,0.000000,0.000000,0.000000,0.000000,0.000005,0.000004,-0.000751,-0.000000,0.000001,0.000025,2.000000, 2.012455, 0.119572, -0.002545,0.000000, 0.000000, 0.000000, -0.015033, 0.000001, -0.000015
0.552655,0.000000,0.000000,0.000000,0.000000,0.000000,0.000000,0.000000,0.000000,0.000000,0.000000,-0.000001,-0.000092,-0.000000,0.000001,0.000025,2.000000, 2.012455, 0.119571, 0.006222,0.000000, 0.000000, 0.000000, -0.015034, 0.000001, -0.000015
0.563187,0.000000,0.000000,0.000000,0.000000,0.000000,0.000000,0.000000,0.000000,0.000000,0.000000,-0.000001,-0.000092,-0.000000,0.000001,0.000025,2.000000, 2.012455, 0.119571, 0.011860,0.000000, 0.000000, 0.000000, -0.015034, 0.000001, -0.000015
0.572892,0.000000,0.000000,0.000000,0.000000,0.000000,0.000000,0.000000,0.000000,0.000000,-0.000000,-0.000001,-0.000035,-0.000000,0.000001,0.000024,2.000000, 2.012455, 0.119571, -0.006500,0.000000, 0.000000, 0.000000, -0.015034, 0.000001, -0.000015
0.584130,0.000000,0.000000,0.000000,0.000000,0.000000,0.000000,0.000000,0.000000,0.000000,-0.000000,-0.000001,-0.000035,-0.000000,0.000001,0.000024,2.000000, 2.012455, 0.119571, -0.002424,0.000000, 0.000000, 0.000000, -0.015034, 0.000001, -0.000015
0.593020,0.000000,0.000000,0.000000,0.000000,0.000000,0.000000,0.000000,0.000000,0.000000,0.000000,-0.000001,-0.000052,-0.000000,0.000001,0.000023,2.000000, 2.012455, 0.119570, -0.003740,0.000000, 0.000000, 0.000000, -0.015034, 0.000002, -0.000015
0.603572,0.000000,0.000000,0.000000,0.000000,0.000000,0.000000,0.000000,0.000000,0.000000,0.000000,-0.000001,-0.000052,-0.000000,0.000001,0.000023,2.000000, 2.012455, 0.119570, 0.000545,0.000000, 0.000000, 0.000000, -0.015034, 0.000002, -0.000015
0.613266,0.000000,0.000000,0.000000,0.000000,0.000000,0.000000,0.000000,0.000000,0.000000,0.000000,-0.000002,-0.000064,-0.000000,0.000001,0.000022,2.000000, 2.012455, 0.119570, 0.003290,0.000000, 0.000000, 0.000000, -0.015034, 0.000002, -0.000015
0.623760,0.000000,0.000000,0.000000,0.000000,0.000000,0.000000,0.000000,0.000000,0.000000,0.000000,-0.000002,-0.000064,-0.000000,0.000001,0.000022,2.000000, 2.012455, 0.119570, 0.012116,0.000000, 0.000000, 0.000000, -0.015034, 0.000002, -0.000015
0.633449,0.000000,0.000000,0.000000,0.000000,0.000000,0.000000,0.000000,0.000000,0.000000,0.000000,-0.000002,-0.000080,-0.000000,0.000001,0.000020,2.000000, 2.012455, 0.119569, 0.006353,0.000000, 0.000000, 0.000000, -0.015035, 0.000002, -0.000015
0.646208,0.000000,0.000000,0.000000,0.000000,0.000000,0.000000,0.000000,0.000000,0.000000,0.000000,-0.000002,-0.000080,-0.000000,0.000001,0.000020,2.000000, 2.012455, 0.119569, 0.001297,0.000000, 0.000000, 0.000000, -0.015035, 0.000002, -0.000015
0.653706,0.000000,0.000000,0.000000,0.000000,0.000000,0.000000,0.000000,0.000000,0.000000,0.000000,-0.000003,-0.000100,-0.000000,0.000001,0.000018,2.000000, 2.012455, 0.119569, 0.006990,0.000000, 0.000000, 0.000000, -0.015035, 0.000002, -0.000015
0.664157,0.000000,0.000000,0.000000,0.000000,0.000000,0.000000,0.000000,0.000000,0.000000,0.000000,-0.000003,-0.000100,-0.000000,0.000001,0.000018,2.000000, 2.012455, 0.119569, 0.000884,0.000000, 0.000000, 0.000000, -0.015035, 0.000002, -0.000015
0.673862,0.000000,0.000000,0.000000,0.000000,0.000000,0.000000,0.000000,0.000000,0.000000,0.000000,-0.000003,-0.000114,-0.000000,0.000001,0.000016,2.000000, 2.012455, 0.119569, -0.002026,0.000000, 0.000000, 0.000000, -0.015035, 0.000002, -0.000015
0.684318,0.000000,0.000000,0.000000,0.000000,0.000000,0.000000,0.000000,0.000000,0.000000,0.000000,-0.000003,-0.000114,-0.000000,0.000001,0.000016,2.000000, 2.012455, 0.119569, -0.002727,0.000000, 0.000000, 0.000000, -0.015035, 0.000002, -0.000015
0.695819,0.000000,0.000000,0.000000,0.000000,0.000000,0.000000,0.000000,0.000000,0.000000,0.000000,-0.000003,-0.000113,-0.000000,0.000001,0.000013,2.000000, 2.012455, 0.119568, -0.001396,0.000000, 0.000000, 0.000000, -0.015035, 0.000002, -0.000015
0.704537,0.000000,0.000000,0.000000,0.000000,0.000000,0.000000,0.000000,0.000000,0.000000,0.000000,-0.000003,-0.000113,-0.000000,0.000001,0.000013,2.000000, 2.012455, 0.119568, 0.001769,0.000000, 0.000000, 0.000000, -0.015035, 0.000002, -0.000015
0.714229,0.000000,0.000000,0.000000,0.000000,0.000000,0.000000,0.000000,0.000000,0.000000,0.000000,-0.000004,-0.000143,-0.000000,0.000001,0.000011,2.000000, 2.012455, 0.119568, -0.001133,0.000000, 0.000000, 0.000000, -0.015035, 0.000002, -0.000015
0.724753,0.000000,0.000000,0.000000,0.000000,0.000000,0.000000,0.000000,0.000000,0.000000,0.000000,-0.000004,-0.000143,-0.000000,0.000001,0.000011,2.000000, 2.012455, 0.119568, -0.002179,0.000000, 0.000000, 0.000000, -0.015035, 0.000002, -0.000015
0.734503,0.000000,0.000000,0.000000,0.000000,0.000000,0.000000,0.000000,0.000000,0.000000,0.000000,-0.000004,-0.000143,-0.000000,0.000001,0.000008,2.000000, 2.012455, 0.119568, 0.004130,0.000000, 0.000000, 0.000000, -0.015035, 0.000002, -0.000015
0.745954,0.000000,0.000000,0.000000,0.000000,0.000000,0.000000,0.000000,0.000000,0.000000,0.000000,-0.000004,-0.000143,-0.000000,0.000001,0.000008,2.000000, 2.012455, 0.119568, 0.001820,0.000000, 0.000000, 0.000000, -0.015035, 0.000002, -0.000015
0.754658,0.000000,0.000000,0.000000,0.000000,0.000000,0.000000,0.000000,0.000000,0.000000,0.000000,-0.000004,-0.000144,-0.000000,0.000001,0.000005,2.000000, 2.012455, 0.119568, 0.007353,0.000000, 0.000000, 0.000000, -0.015034, 0.000002, -0.000015
0.765514,0.000000,0.000000,0.000000,0.000000,0.000000,0.000000,0.000000,0.000000,0.000000,0.000000,-0.000004,-0.000144,-0.000000,0.000001,0.000005,2.000000, 2.012455, 0.119568, 0.000819,0.000000, 0.000000, 0.000000, -0.015034, 0.000002, -0.000015
0.774818,0.000000,0.000000,0.000000,0.000000,0.000000,0.000000,0.000000,0.000000,0.000000,0.000000,-0.000004,-0.000145,-0.000000,0.000001,0.000002,2.000000, 2.012455, 0.119568, -0.009118,0.000000, 0.000000, 0.000000, -0.015034, 0.000002, -0.000015
0.786171,0.000000,0.000000,0.000000,0.000000,0.000000,0.000000,0.000000,0.000000,0.000000,0.000000,-0.000004,-0.000145,-0.000000,0.000001,0.000002,2.000000, 2.012455, 0.119568, 0.002051,0.000000, 0.000000, 0.000000, -0.015034, 0.000002, -0.000015
0.795052,0.000000,0.000000,0.000000,0.000000,0.000000,0.000000,0.000000,0.000000,0.000000,0.000000,-0.000004,-0.000147,-0.000000,0.000001,-0.000001,2.000000, 2.012455, 0.119568, 0.004884,0.000000, 0.000000, 0.000000, -0.015034, 0.000002, -0.000015
0.805657,0.000000,0.000000,0.000000,0.000000,0.000000,0.000000,0.000000,0.000000,0.000000,0.000000,-0.000004,-0.000147,-0.000000,0.000001,-0.000001,2.000000, 2.012455, 0.119568, 0.008305,0.000000, 0.000000, 0.000000, -0.015034, 0.000002, -0.000015
0.815345,0.000000,0.000000,0.000000,0.000000,0.000000,0.000000,0.000000,0.000000,0.000000,0.000000,-0.000004,-0.000153,-0.000000,0.000000,-0.000004,2.000000, 2.012455, 0.119568, 0.001816,0.000000, 0.000000, 0.000000, -0.015034, 0.000002, -0.000015
0.828953,0.000000,0.000000,0.000000,0.000000,0.000000,0.000000,0.000000,0.000000,0.000000,0.000000,-0.000004,-0.000153,-0.000000,0.000000,-0.000004,2.000000, 2.012455, 0.119568, 0.002238,0.000000, 0.000000, 0.000000, -0.015034, 0.000002, -0.000015
0.836039,0.000000,0.000000,0.000000,0.000000,0.000000,0.000000,0.000000,0.000000,0.000000,0.000000,-0.000004,-0.000144,-0.000000,0.000000,-0.000007,2.000000, 2.012455, 0.119568, 0.006453,0.000000, 0.000000, 0.000000, -0.015033, 0.000002, -0.000015
0.845978,0.000000,0.000000,0.000000,0.000000,0.000000,0.000000,0.000000,0.000000,0.000000,0.000000,-0.000004,-0.000144,-0.000000,0.000000,-0.000007,2.000000, 2.012455, 0.119568, 0.000859,0.000000, 0.000000, 0.000000, -0.015033, 0.000002, -0.000015
0.855659,0.000000,0.000000,0.000000,0.000000,0.000000,0.000000,0.000000,0.000000,0.000000,0.000000,-0.000004,-0.000147,-0.000000,0.000000,-0.000010,2.000000, 2.012455, 0.119568, 0.002808,0.000000, 0.000000, 0.000000, -0.015033, 0.000002, -0.000015
0.866521,0.000000,0.000000,0.000000,0.000000,0.000000,0.000000,0.000000,0.000000,0.000000,0.000000,-0.000004,-0.000147,-0.000000,0.000000,-0.000010,2.000000, 2.012455, 0.119568, 0.003649,0.000000, 0.000000, 0.000000, -0.015033, 0.000002, -0.000015
0.879199,0.000000,0.000000,0.000000,0.000000,0.000000,0.000000,0.000000,0.000000,0.000000,0.000000,-0.000003,-0.000123,-0.000000,0.000000,-0.000013,2.000000, 2.012455, 0.119568, -0.002134,0.000000, 0.000000, 0.000000, -0.015032, 0.000002, -0.000015
0.886343,0.000000,0.000000,0.000000,0.000000,0.000000,0.000000,0.000000,0.000000,0.000000,0.000000,-0.000003,-0.000123,-0.000000,0.000000,-0.000013,2.000000, 2.012455, 0.119568, -0.018404,0.000000, 0.000000, 0.000000, -0.015032, 0.000002, -0.000015
0.896019,0.000000,0.000000,0.000000,0.000000,0.000000,0.000000,0.000000,0.000000,0.000000,0.000000,-0.000005,-0.000161,-0.000000,0.000000,-0.000016,2.000000, 2.012455, 0.119569, 0.008230,0.000000, 0.000000, 0.000000, -0.015032, 0.000001, -0.000015
0.906614,0.000000,0.000000,0.000000,0.000000,0.000000,0.000000,0.000000,0.000000,0.000000,0.000000,-0.000005,-0.000161,-0.000000,0.000000,-0.000016,2.000000, 2.012455, 0.119569, 0.003078,0.000000, 0.000000, 0.000000, -0.015032, 0.000001, -0.000015
0.916332,0.000000,0.000000,0.000000,0.000000,0.000000,0.000000,0.000000,0.000000,0.000000,0.000000,-0.000004,-0.000120,-0.000000,0.000000,-0.000018,2.000000, 2.012455, 0.119569, -0.010004,0.000000, 0.000000, 0.000000, -0.015032, 0.000001, -0.000015
0.929092,0.000000,0.000000,0.000000,0.000000,0.000000,0.000000,0.000000,0.000000,0.000000,0.000000,-0.000004,-0.000120,-0.000000,0.000000,-0.000018,2.000000, 2.012455, 0.119569, -0.001521,0.000000, 0.000000, 0.000000, -0.015032, 0.000001, -0.000015
0.936440,0.000000,0.000000,0.000000,0.000000,0.000000,0.000000,0.000000,0.000000,0.000000,0.000000,-0.000003,-0.000101,-0.000000,-0.000000,-0.000020,2.000000, 2.012455, 0.119569, 0.004788,0.000000, 0.000000, 0.000000, -0.015031, 0.000001, -0.000015
0.946894,0.000000,0.000000,0.000000,0.000000,0.000000,0.000000,0.000000,0.000000,0.000000,0.000000,-0.000003,-0.000101,-0.000000,-0.000000,-0.000020,2.000000, 2.012455, 0.119569, -0.009649,0.000000, 0.000000, 0.000000, -0.015031, 0.000001, -0.000015
0.956604,0.000000,0.000000,0.000000,0.000000,0.000000,0.000000,0.000000,0.000000,0.000000,0.000000,-0.000003,-0.000086,-0.000000,-0.000000,-0.000022,2.000000, 2.012455, 0.119570, 0.004787,0.000000, 0.000000, 0.000000, -0.015031, 0.000001, -0.000015
0.968842,0.000000,0.000000,0.000000,0.000000,0.000000,0.000000,0.000000,0.000000,0.000000,0.000000,-0.000003,-0.000086,-0.000000,-0.000000,-0.000022,2.000000, 2.012455, 0.119570, -0.003279,0.000000, 0.000000, 0.000000, -0.015031, 0.000001, -0.000015
0.976774,0.000000,0.000000,0.000000,0.000000,0.000000,0.000000,0.000000,0.000000,0.000000,0.000000,-0.000002,-0.000074,-0.000000,-0.000000,-0.000023,2.000000, 2.012455, 0.119570, 0.003622,0.000000, 0.000000, 0.000000, -0.015030, 0.000001, -0.000015
0.987436,0.000000,0.000000,0.000000,0.000000,0.000000,0.000000,0.000000,0.000000,0.000000,0.000000,-0.000002,-0.000074,-0.000000,-0.000000,-0.000023,2.000000, 2.012455, 0.119570, 0.007256,0.000000, 0.000000, 0.000000, -0.015030, 0.000001, -0.000015
0.997171,0.000000,0.000000,0.000000,0.000000,0.000000,0.000000,0.000000,0.000000,0.000000,0.000000,-0.000002,-0.000051,-0.000000,-0.000000,-0.000025,2.000000, 2.012455, 0.119571, 0.004237,0.000000, 0.000000, 0.000000, -0.015030, 0.000001, -0.000015
1.007749,0.000000,0.000000,0.000000,0.000000,0.000000,0.000000,0.000000,0.000000,0.000000,0.000000,-0.000002,-0.000051,-0.000000,-0.000000,-0.000025,2.000000, 2.012455, 0.119571, 0.001082,0.000000, 0.000000, 0.000000, -0.015030, 0.000001, -0.000015
1.017460,0.000000,0.000000,0.000000,0.000000,0.000000,0.000000,0.000000,0.000000,0.000000,0.000000,-0.000001,-0.000028,-0.000000,-0.000000,-0.000025,2.000000, 2.012455, 0.119571, -0.000631,0.000000, 0.000000, 0.000000, -0.015029, 0.000001, -0.000015
1.028876,0.000000,0.000000,0.000000,0.000000,0.000000,0.000000,0.000000,0.000000,0.000000,0.000000,-0.000001,-0.000028,-0.000000,-0.000000,-0.000025,2.000000, 2.012455, 0.119571, 0.005810,0.000000, 0.000000, 0.000000, -0.015029, 0.000001, -0.000015
1.037604,0.000000,0.000000,0.000000,0.000000,0.000000,0.000000,0.000000,0.000000,0.000000,0.000000,-0.000001,-0.000009,-0.000000,-0.000000,-0.000025,2.000000, 2.012455, 0.119572, 0.001806,0.000000, 0.000000, 0.000000, -0.015029, 0.000001, -0.000015
1.048648,0.000000,0.000000,0.000000,0.000000,0.000000,0.000000,0.000000,0.000000,0.000000,0.000000,-0.000001,-0.000009,-0.000000,-0.000000,-0.000025,2.000000, 2.012455, 0.119572, 0.005451,0.000000, 0.000000, 0.000000, -0.015029, 0.000001, -0.000015
1.058128,0.000000,0.000000,0.000000,0.000000,0.000000,0.000000,0.000000,0.000000,0.000000,0.000000,-0.000000,0.000001,-0.000000,-0.000000,-0.000025,2.000000, 2.012455, 0.119572, 0.007641,0.000000, 0.000000, 0.000000, -0.015029, 0.000001, -0.000015
1.068676,0.000000,0.000000,0.000000,0.000000,0.000000,0.000000,0.000000,0.000000,0.000000,0.000000,-0.000000,0.000001,-0.000000,-0.000000,-0.000025,2.000000, 2.012455, 0.119572, 0.000279,0.000000, 0.000000, 0.000000, -0.015029, 0.000001, -0.000015
1.078882,0.000000,0.000000,0.000000,0.000000,0.000000,0.000000,0.000000,0.000000,0.000000,-0.000000,-0.000000,0.000003,-0.000000,-0.000000,-0.000025,2.000000, 2.012455, 0.119573, 0.004349,0.000000, 0.000000, 0.000000, -0.015028, 0.000001, -0.000015
1.088948,0.000000,0.000000,0.000000,0.000000,0.000000,0.000000,0.000000,0.000000,0.000000,-0.000000,-0.000000,0.000003,-0.000000,-0.000000,-0.000025,2.000000, 2.012455, 0.119573, 0.001317,0.000000, 0.000000, 0.000000, -0.015028, 0.000001, -0.000015
1.098642,0.000000,0.000000,0.000000,0.000000,0.000000,0.000000,0.000000,0.000000,0.000000,-0.000000,0.000000,0.000018,-0.000000,-0.000000,-0.000025,2.000000, 2.012455, 0.119573, 0.001353,0.000000, 0.000000, 0.000000, -0.015028, 0.000001, -0.000015
1.112291,0.000000,0.000000,0.000000,0.000000,0.000000,0.000000,0.000000,0.000000,0.000000,-0.000000,0.000000,0.000018,-0.000000,-0.000000,-0.000025,2.000000, 2.012455, 0.119573, 0.010730,0.000000, 0.000000, 0.000000, -0.015028, 0.000001, -0.000015
1.118863,0.000000,0.000000,0.000000,0.000000,0.000000,0.000000,0.000000,0.000000,0.000000,-0.000000,0.000001,0.000030,-0.000000,-0.000000,-0.000024,2.000000, 2.012455, 0.119574, 0.007523,0.000000, 0.000000, 0.000000, -0.015028, 0.000001, -0.000015
1.129300,0.000000,0.000000,0.000000,0.000000,0.000000,0.000000,0.000000,0.000000,0.000000,-0.000000,0.000001,0.000030,-0.000000,-0.000000,-0.000024,2.000000, 2.012455, 0.119574, 0.002241,0.000000, 0.000000, 0.000000, -0.015028, 0.000001, -0.000015
1.139099,0.000000,0.000000,0.000000,0.000000,0.000000,0.000000,0.000000,0.000000,0.000000,-0.000000,0.000001,0.000032,-0.000000,-0.000000,-0.000024,2.000000, 2.012455, 0.119574, 0.004313,0.000000, 0.000000, 0.000000, -0.015027, 0.000001, -0.000015
1.152180,0.000000,0.000000,0.000000,0.000000,0.000000,0.000000,0.000000,0.000000,0.000000,-0.000000,0.000001,0.000032,-0.000000,-0.000000,-0.000024,2.000000, 2.012455, 0.119574, 0.001882,0.000000, 0.000000, 0.000000, -0.015027, 0.000001, -0.000015
1.159296,0.000000,0.000000,0.000000,0.000000,0.000000,0.000000,0.000000,0.000000,0.000000,-0.000000,0.000001,0.000037,-0.000000,-0.000000,-0.000023,2.000000, 2.012454, 0.119575, 0.000460,0.000000, 0.000000, 0.000000, -0.015027, 0.000001, -0.000015
1.169952,0.000000,0.000000,0.000000,0.000000,0.000000,0.000000,0.000000,0.000000,0.000000,-0.000000,0.000001,0.000037,-0.000000,-0.000000,-0.000023,2.000000, 2.012454, 0.119575, 0.001548,0.000000, 0.000000, 0.000000, -0.015027, 0.000001, -0.000015
1.179728,0.000000,0.000000,0.000000,0.000000,0.000000,0.000000,0.000000,0.000000,0.000000,-0.000000,0.000001,0.000046,-0.000000,-0.000000,-0.000022,2.000000, 2.012454, 0.119575, 0.003443,0.000000, 0.000000, 0.000000, -0.015027, 0.000001, -0.000015
1.190157,0.000000,0.000000,0.000000,0.000000,0.000000,0.000000,0.000000,0.000000,0.000000,-0.000000,0.000001,0.000046,-0.000000,-0.000000,-0.000022,2.000000, 2.012454, 0.119575, -0.001765,0.000000, 0.000000, 0.000000, -0.015027, 0.000001, -0.000015
1.202292,0.000000,0.000000,0.000000,0.000000,0.000000,0.000000,0.000000,0.000000,0.000000,-0.000000,0.000001,0.000042,-0.000000,-0.000000,-0.000021,2.000000, 2.012454, 0.119576, 0.012430,0.000000, 0.000000, 0.000000, -0.015027, 0.000001, -0.000015
1.210277,0.000000,0.000000,0.000000,0.000000,0.000000,0.000000,0.000000,0.000000,0.000000,-0.000000,0.000001,0.000042,-0.000000,-0.000000,-0.000021,2.000000, 2.012454, 0.119576, -0.003402,0.000000, 0.000000, 0.000000, -0.015027, 0.000001, -0.000015
1.220011,0.000000,0.000000,0.000000,0.000000,0.000000,0.000000,0.000000,0.000000,0.000000,-0.000000,0.000002,0.000064,-0.000000,-0.000000,-0.000020,2.000000, 2.012454, 0.119576, 0.001492,0.000000, 0.000000, 0.000000, -0.015027, 0.000001, -0.000015
1.230589,0.000000,0.000000,0.000000,0.000000,0.000000,0.000000,0.000000,0.000000,0.000000,-0.000000,0.000002,0.000064,-0.000000,-0.000000,-0.000020,2.000000, 2.012454, 0.119576, 0.006978,0.000000, 0.000000, 0.000000, -0.015027, 0.000001, -0.000015
1.240352,0.000000,0.000000,0.000000,0.000000,0.000000,0.000000,0.000000,0.000000,0.000000,-0.000000,0.000001,0.000062,-0.000000,-0.000000,-0.000019,2.000000, 2.012454, 0.119576, -0.006432,0.000000, 0.000000, 0.000000, -0.015027, 0.000001, -0.000015
1.252301,0.000000,0.000000,0.000000,0.000000,0.000000,0.000000,0.000000,0.000000,0.000000,-0.000000,0.000001,0.000062,-0.000000,-0.000000,-0.000019,2.000000, 2.012454, 0.119576, -0.008483,0.000000, 0.000000, 0.000000, -0.015027, 0.000001, -0.000015
1.260507,0.000000,0.000000,0.000000,0.000000,0.000000,0.000000,0.000000,0.000000,0.000000,-0.000000,0.000001,0.000056,-0.000000,-0.000000,-0.000017,2.000000, 2.012454, 0.119577, 0.002065,0.000000, 0.000000, 0.000000, -0.015027, 0.000001, -0.000015
1.271097,0.000000,0.000000,0.000000,0.000000,0.000000,0.000000,0.000000,0.000000,0.000000,-0.000000,0.000001,0.000056,-0.000000,-0.000000,-0.000017,2.000000, 2.012454, 0.119577, 0.003410,0.000000, 0.000000, 0.000000, -0.015027, 0.000001, -0.000015
1.271220,0.000000,0.000000,0.000000,0.000000,0.000000,0.000000,0.000000,0.000000,0.000000,-0.000000,0.000003,0.000110,-0.000000,0.000000,-0.000016,2.000000, 2.012454, 0.119577, 0.003945,0.000000, 0.000000, 0.000000, -0.015027, 0.000001, -0.000015
1.281598,0.000000,0.000000,0.000000,0.000000,0.000000,0.000000,0.000000,0.000000,0.000000,-0.000000,0.000003,0.000110,-0.000000,0.000000,-0.000016,2.000000, 2.012454, 0.119577, 0.004547,0.000000, 0.000000, 0.000000, -0.015027, 0.000001, -0.000015
1.290916,0.000000,0.000000,0.000000,0.000000,0.000000,0.000000,0.000000,0.000000,0.000000,-0.000000,0.000004,0.000135,-0.000000,0.000000,-0.000014,2.000000, 2.012454, 0.119577, 0.006423,0.000000, 0.000000, 0.000000, -0.015027, 0.000001, -0.000015
1.301458,0.000000,0.000000,0.000000,0.000000,0.000000,0.000000,0.000000,0.000000,0.000000,-0.000000,0.000004,0.000135,-0.000000,0.000000,-0.000014,2.000000, 2.012454, 0.119577, 0.002085,0.000000, 0.000000, 0.000000, -0.015027, 0.000001, -0.000015
1.312171,0.000000,0.000000,0.000000,0.000000,0.000000,0.000000,0.000000,0.000000,0.000000,-0.000000,0.000004,0.000136,-0.000000,0.000000,-0.000011,2.000000, 2.012454, 0.119578, 0.006666,0.000000, 0.000000, 0.000000, -0.015028, 0.000001, -0.000015
1.321656,0.000000,0.000000,0.000000,0.000000,0.000000,0.000000,0.000000,0.000000,0.000000,-0.000000,0.000004,0.000136,-0.000000,0.000000,-0.000011,2.000000, 2.012454, 0.119578, 0.013968,0.000000, 0.000000, 0.000000, -0.015028, 0.000001, -0.000015
1.331809,0.000000,0.000000,0.000000,0.000000,0.000000,0.000000,0.000000,0.000000,0.000000,-0.000000,0.000004,0.000147,-0.000000,0.000000,-0.000008,2.000000, 2.012454, 0.119578, 0.005979,0.000000, 0.000000, 0.000000, -0.015028, 0.000001, -0.000015
1.342058,0.000000,0.000000,0.000000,0.000000,0.000000,0.000000,0.000000,0.000000,0.000000,-0.000000,0.000004,0.000147,-0.000000,0.000000,-0.000008,2.000000, 2.012454, 0.119578, 0.002232,0.000000, 0.000000, 0.000000, -0.015028, 0.000001, -0.000015
1.351610,0.000000,0.000000,0.000000,0.000000,0.000000,0.000000,0.000000,0.000000,0.000000,-0.000000,0.000004,0.000153,-0.000000,0.000000,-0.000005,2.000000, 2.012454, 0.119578, -0.000052,0.000000, 0.000000, 0.000000, -0.015028, 0.000001, -0.000015
1.362248,0.000000,0.000000,0.000000,0.000000,0.000000,0.000000,0.000000,0.000000,0.000000,-0.000000,0.000004,0.000153,-0.000000,0.000000,-0.000005,2.000000, 2.012454, 0.119578, 0.002685,0.000000, 0.000000, 0.000000, -0.015028, 0.000001, -0.000015
1.371888,0.000000,0.000000,0.000000,0.000000,0.000000,0.000000,0.000000,0.000000,0.000000,-0.000000,0.000004,0.000151,-0.000000,0.000000,-0.000002,2.000000, 2.012454, 0.119578, 0.001564,0.000000, 0.000000, 0.000000, -0.015029, 0.000001, -0.000015
1.382510,0.000000,0.000000,0.000000,0.000000,0.000000,0.000000,0.000000,0.000000,0.000000,-0.000000,0.000004,0.000151,-0.000000,0.000000,-0.000002,2.000000, 2.012454, 0.119578, 0.007045,0.000000, 0.000000, 0.000000, -0.015029, 0.000001, -0.000015
1.392261,0.000000,0.000000,0.000000,0.000000,0.000000,0.000000,0.000000,0.000000,0.000000,-0.000000,0.000004,0.000145,-0.000000,0.000000,0.000001,2.000000, 2.012454, 0.119578, 0.003838,0.000000, 0.000000, 0.000000, -0.015029, 0.000001, -0.000015
1.402854,0.000000,0.000000,0.000000,0.000000,0.000000,0.000000,0.000000,0.000000,0.000000,-0.000000,0.000004,0.000145,-0.000000,0.000000,0.000001,2.000000, 2.012454, 0.119578, -0.002080,0.000000, 0.000000, 0.000000, -0.015029, 0.000001, -0.000015
1.412381,0.000000,0.000000,0.000000,0.000000,0.000000,0.000000,0.000000,0.000000,0.000000,-0.000000,0.000004,0.000156,-0.000000,0.000001,0.000004,2.000000, 2.012454, 0.119578, -0.003647,0.000000, 0.000000, 0.000000, -0.015030, 0.000001, -0.000015
1.422928,0.000000,0.000000,0.000000,0.000000,0.000000,0.000000,0.000000,0.000000,0.000000,-0.000000,0.000004,0.000156,-0.000000,0.000001,0.000004,2.000000, 2.012454, 0.119578, 0.005633,0.000000, 0.000000, 0.000000, -0.015030, 0.000001, -0.000015
1.436431,0.000000,0.000000,0.000000,0.000000,0.000000,0.000000,0.000000,0.000000,0.000000,-0.000000,0.000004,0.000125,-0.000000,0.000001,0.000007,2.000000, 2.012454, 0.119578, 0.001777,0.000000, 0.000000, 0.000000, -0.015030, 0.000001, -0.000015
1.443005,0.000000,0.000000,0.000000,0.000000,0.000000,0.000000,0.000000,0.000000,0.000000,-0.000000,0.000004,0.000125,-0.000000,0.000001,0.000007,2.000000, 2.012454, 0.119578, 0.000031,0.000000, 0.000000, 0.000000, -0.015030, 0.000001, -0.000015
1.452634,0.000000,0.000000,0.000000,0.000000,0.000000,0.000000,0.000000,0.000000,0.000000,-0.000000,0.000006,0.000193,-0.000000,0.000001,0.000011,2.000000, 2.012454, 0.119577, 0.001642,0.000000, 0.000000, 0.000000, -0.015031, 0.000001, -0.000015
1.463085,0.000000,0.000000,0.000000,0.000000,0.000000,0.000000,0.000000,0.000000,0.000000,-0.000000,0.000006,0.000193,-0.000000,0.000001,0.000011,2.000000, 2.012454, 0.119577, -0.000696,0.000000, 0.000000, 0.000000, -0.015031, 0.000001, -0.000015
1.472830,0.000000,0.000000,0.000000,0.000000,0.000000,0.000000,0.000000,0.000000,0.000000,-0.000000,0.000004,0.000144,-0.000000,0.000001,0.000013,2.000000, 2.012454, 0.119577, -0.000287,0.000000, 0.000000, 0.000000, -0.015031, 0.000001, -0.000015
1.483309,0.000000,0.000000,0.000000,0.000000,0.000000,0.000000,0.000000,0.000000,0.000000,-0.000000,0.000004,0.000144,-0.000000,0.000001,0.000013,2.000000, 2.012454, 0.119577, -0.000214,0.000000, 0.000000, 0.000000, -0.015031, 0.000001, -0.000015
1.493019,0.000000,0.000000,0.000000,0.000000,0.000000,0.000000,0.000000,0.000000,0.000000,-0.000000,0.000004,0.000137,-0.000000,0.000001,0.000016,2.000000, 2.012454, 0.119577, -0.002777,0.000000, 0.000000, 0.000000, -0.015032, 0.000001, -0.000015
1.505254,0.000000,0.000000,0.000000,0.000000,0.000000,0.000000,0.000000,0.000000,0.000000,-0.000000,0.000004,0.000137,-0.000000,0.000001,0.000016,2.000000, 2.012454, 0.119577, -0.002163,0.000000, 0.000000, 0.000000, -0.015032, 0.000001, -0.000015
1.513156,0.000000,0.000000,0.000000,0.000000,0.000000,0.000000,0.000000,0.000000,0.000000,-0.000000,0.000003,0.000100,-0.000000,0.000001,0.000018,2.000000, 2.012454, 0.119577, 0.006902,0.000000, 0.000000, 0.000000, -0.015032, 0.000001, -0.000015
1.523797,0.000000,0.000000,0.000000,0.000000,0.000000,0.000000,0.000000,0.000000,0.000000,-0.000000,0.000003,0.000100,-0.000000,0.000001,0.000018,2.000000, 2.012454, 0.119577, 0.003319,0.000000, 0.000000, 0.000000, -0.015032, 0.000001, -0.000015
1.536453,0.000000,0.000000,0.000000,0.000000,0.000000,0.000000,0.000000,0.000000,0.000000,-0.000000,0.000001,0.000036,-0.000000,0.000001,0.000019,2.000000, 2.012454, 0.119576, 0.007766,0.000000, 0.000000, 0.000000, -0.015033, 0.000001, -0.000015
1.543980,0.000000,0.000000,0.000000,0.000000,0.000000,0.000000,0.000000,0.000000,0.000000,-0.000000,0.000001,0.000036,-0.000000,0.000001,0.000019,2.000000, 2.012454, 0.119576, -0.002592,0.000000, 0.000000, 0.000000, -0.015033, 0.000001, -0.000015
1.553674,0.000000,0.000000,0.000000,0.000000,0.000000,0.000000,0.000000,0.000000,0.000000,0.000000,0.000002,0.000062,-0.000000,0.000001,0.000020,2.000000, 2.012454, 0.119576, 0.001809,0.000000, 0.000000, 0.000000, -0.015034, 0.000001, -0.000015
1.564151,0.000000,0.000000,0.000000,0.000000,0.000000,0.000000,0.000000,0.000000,0.000000,0.000000,0.000002,0.000062,-0.000000,0.000001,0.000020,2.000000, 2.012454, 0.119576, 0.002109,0.000000, 0.000000, 0.000000, -0.015034, 0.000001, -0.000015
1.573893,0.000000,0.000000,0.000000,0.000000,0.000000,0.000000,0.000000,0.000000,0.000000,0.000000,0.000001,0.000048,-0.000000,0.000001,0.000021,2.000000, 2.012454, 0.119575, -0.001218,0.000000, 0.000000, 0.000000, -0.015034, 0.000001, -0.000015
1.586415,0.000000,0.000000,0.000000,0.000000,0.000000,0.000000,0.000000,0.000000,0.000000,0.000000,0.000001,0.000048,-0.000000,0.000001,0.000021,2.000000, 2.012454, 0.119575, 0.003256,0.000000, 0.000000, 0.000000, -0.015034, 0.000001, -0.000015
1.594030,0.000000,0.000000,0.000000,0.000000,0.000000,0.000000,0.000000,0.000000,0.000000,0.000000,0.000002,0.000047,-0.000000,0.000001,0.000022,2.000000, 2.012454, 0.119575, 0.004045,0.000000, 0.000000, 0.000000, -0.015035, 0.000001, -0.000015
1.604602,0.000000,0.000000,0.000000,0.000000,0.000000,0.000000,0.000000,0.000000,0.000000,0.000000,0.000002,0.000047,-0.000000,0.000001,0.000022,2.000000, 2.012454, 0.119575, 0.009600,0.000000, 0.000000, 0.000000, -0.015035, 0.000001, -0.000015
1.614286,0.000000,0.000000,0.000000,0.000000,0.000000,0.000000,0.000000,0.000000,0.000000,0.000000,0.000001,0.000039,-0.000000,0.000001,0.000023,2.000000, 2.012454, 0.119574, 0.012269,0.000000, 0.000000, 0.000000, -0.015035, 0.000001, -0.000015
1.624931,0.000000,0.000000,0.000000,0.000000,0.000000,0.000000,0.000000,0.000000,0.000000,0.000000,0.000001,0.000039,-0.000000,0.000001,0.000023,2.000000, 2.012454, 0.119574, 0.006432,0.000000, 0.000000, 0.000000, -0.015035, 0.000001, -0.000015
1.636261,0.000000,0.000000,0.000000,0.000000,0.000000,0.000000,0.000000,0.000000,0.000000,0.000000,0.000001,0.000033,-0.000000,0.000001,0.000024,2.000000, 2.012454, 0.119574, 0.011262,0.000000, 0.000000, 0.000000, -0.015036, 0.000001, -0.000015
1.644921,0.000000,0.000000,0.000000,0.000000,0.000000,0.000000,0.000000,0.000000,0.000000,0.000000,0.000001,0.000033,-0.000000,0.000001,0.000024,2.000000, 2.012454, 0.119574, -0.001071,0.000000, 0.000000, 0.000000, -0.015036, 0.000001, -0.000015
1.654759,0.000000,0.000000,0.000000,0.000000,0.000000,0.000000,0.000000,0.000000,0.000000,0.000000,0.000001,0.000029,-0.000000,0.000001,0.000024,2.000000, 2.012454, 0.119574, 0.004140,0.000000, 0.000000, 0.000000, -0.015036, 0.000001, -0.000015
1.665151,0.000000,0.000000,0.000000,0.000000,0.000000,0.000000,0.000000,0.000000,0.000000,0.000000,0.000001,0.000029,-0.000000,0.000001,0.000024,2.000000, 2.012454, 0.119574, 0.005832,0.000000, 0.000000, 0.000000, -0.015036, 0.000001, -0.000015
1.674886,0.000000,0.000000,0.000000,0.000000,0.000000,0.000000,0.000000,0.000000,0.000000,0.000000,0.000001,0.000017,-0.000000,0.000001,0.000024,2.000000, 2.012454, 0.119573, 0.002022,0.000000, 0.000000, 0.000000, -0.015037, 0.000001, -0.000015
1.685771,0.000000,0.000000,0.000000,0.000000,0.000000,0.000000,0.000000,0.000000,0.000000,0.000000,0.000001,0.000017,-0.000000,0.000001,0.000024,2.000000, 2.012454, 0.119573, -0.000495,0.000000, 0.000000, 0.000000, -0.015037, 0.000001, -0.000015
1.694993,0.000000,0.000000,0.000000,0.000000,0.000000,0.000000,0.000000,0.000000,0.000000,0.000000,0.000001,0.000010,-0.000000,0.000001,0.000025,2.000000, 2.012454, 0.119573, 0.005836,0.000000, 0.000000, 0.000000, -0.015037, 0.000001, -0.000015
1.705542,0.000000,0.000000,0.000000,0.000000,0.000000,0.000000,0.000000,0.000000,0.000000,0.000000,0.000001,0.000010,-0.000000,0.000001,0.000025,2.000000, 2.012454, 0.119573, 0.003271,0.000000, 0.000000, 0.000000, -0.015037, 0.000001, -0.000015
1.718928,0.000000,0.000000,0.000000,0.000000,0.000000,0.000000,0.000000,0.000000,0.000000,0.000000,0.000000,0.000001,-0.000000,0.000001,0.000025,2.000000, 2.012454, 0.119572, 0.009308,0.000000, 0.000000, 0.000000, -0.015037, 0.000001, -0.000015
1.725827,0.000000,0.000000,0.000000,0.000000,0.000000,0.000000,0.000000,0.000000,0.000000,0.000000,0.000000,0.000001,-0.000000,0.000001,0.000025,2.000000, 2.012454, 0.119572, 0.009802,0.000000, 0.000000, 0.000000, -0.015037, 0.000001, -0.000015
1.736360,0.000000,0.000000,0.000000,0.000000,0.000000,0.000000,0.000000,0.000000,0.000000,0.000000,0.000000,-0.000006,-0.000000,0.000001,0.000025,2.000000, 2.012454, 0.119572, -0.002588,0.000000, 0.000000, 0.000000, -0.015037, 0.000001, -0.000015
1.745911,0.000000,0.000000,0.000000,0.000000,0.000000,0.000000,0.000000,0.000000,0.000000,0.000000,0.000000,-0.000006,-0.000000,0.000001,0.000025,2.000000, 2.012454, 0.119572, 0.006526,0.000000, 0.000000, 0.000000, -0.015037, 0.000001, -0.000015
1.755671,0.000000,0.000000,0.000000,0.000000,0.000000,0.000000,0.000000,0.000000,0.000000,0.000000,-0.000000,-0.000020,-0.000000,0.000001,0.000024,2.000000, 2.012454, 0.119571, -0.004758,0.000000, 0.000000, 0.000000, -0.015038, 0.000001, -0.000015
1.769215,0.000000,0.000000,0.000000,0.000000,0.000000,0.000000,0.000000,0.000000,0.000000,0.000000,-0.000000,-0.000020,-0.000000,0.000001,0.000024,2.000000, 2.012454, 0.119571, 0.000592,0.000000, 0.000000, 0.000000, -0.015038, 0.000001, -0.000015
1.775797,0.000000,0.000000,0.000000,0.000000,0.000000,0.000000,0.000000,0.000000,0.000000,0.000000,-0.000001,-0.000031,-0.000000,0.000001,0.000024,2.000000, 2.012454, 0.119571, 0.006304,0.000000, 0.000000, 0.000000, -0.015038, 0.000001, -0.000015
1.786475,0.000000,0.000000,0.000000,0.000000,0.000000,0.000000,0.000000,0.000000,0.000000,0.000000,-0.000001,-0.000031,-0.000000,0.000001,0.000024,2.000000, 2.012454, 0.119571, 0.004774,0.000000, 0.000000, 0.000000, -0.015038, 0.000001, -0.000015
1.796118,0.000000,0.000000,0.000000,0.000000,0.000000,0.000000,0.000000,0.000000,0.000000,0.000000,-0.000001,-0.000053,-0.000000,0.000001,0.000022,2.000000, 2.012454, 0.119570, -0.002548,0.000000, 0.000000, 0.000000, -0.015038, 0.000001, -0.000015
1.806629,0.000000,0.000000,0.000000,0.000000,0.000000,0.000000,0.000000,0.000000,0.000000,0.000000,-0.000001,-0.000053,-0.000000,0.000001,0.000022,2.000000, 2.012454, 0.119570, 0.010793,0.000000, 0.000000, 0.000000, -0.015038, 0.000001, -0.000015
1.819078,0.000000,0.000000,0.000000,0.000000,0.000000,0.000000,0.000000,0.000000,0.000000,0.000000,-0.000001,-0.000049,-0.000000,0.000001,0.000021,2.000000, 2.012454, 0.119570, 0.009928,0.000000, 0.000000, 0.000000, -0.015038, 0.000001, -0.000015
1.827008,0.000000,0.000000,0.000000,0.000000,0.000000,0.000000,0.000000,0.000000,0.000000,0.000000,-0.000001,-0.000049,-0.000000,0.000001,0.000021,2.000000, 2.012454, 0.119570, 0.005917,0.000000, 0.000000, 0.000000, -0.015038, 0.000001, -0.000015
1.836633,0.000000,0.000000,0.000000,0.000000,0.000000,0.000000,0.000000,0.000000,0.000000,0.000000,-0.000002,-0.000092,0.000000,0.000001,0.000020,2.000000, 2.012454, 0.119569, -0.004594,0.000000, 0.000000, 0.000000, -0.015037, 0.000001, -0.000015
1.847141,0.000000,0.000000,0.000000,0.000000,0.000000,0.000000,0.000000,0.000000,0.000000,0.000000,-0.000002,-0.000092,0.000000,0.000001,0.000020,2.000000, 2.012454, 0.119569, -0.001103,0.000000, 0.000000, 0.000000, -0.015037, 0.000001, -0.000015
1.856849,0.000000,0.000000,0.000000,0.000000,0.000000,0.000000,0.000000,0.000000,0.000000,0.000000,-0.000002,-0.000089,0.000000,0.000001,0.000018,2.000000, 2.012454, 0.119569, 0.001823,0.000000, 0.000000, 0.000000, -0.015037, 0.000001, -0.000015
1.868974,0.000000,0.000000,0.000000,0.000000,0.000000,0.000000,0.000000,0.000000,0.000000,0.000000,-0.000002,-0.000089,0.000000,0.000001,0.000018,2.000000, 2.012454, 0.119569, 0.005411,0.000000, 0.000000, 0.000000, -0.015037, 0.000001, -0.000015
1.877001,0.000000,0.000000,0.000000,0.000000,0.000000,0.000000,0.000000,0.000000,0.000000,0.000000,-0.000003,-0.000115,0.000000,0.000001,0.000016,2.000000, 2.012454, 0.119569, -0.001343,0.000000, 0.000000, 0.000000, -0.015037, 0.000001, -0.000015
1.887593,0.000000,0.000000,0.000000,0.000000,0.000000,0.000000,0.000000,0.000000,0.000000,0.000000,-0.000003,-0.000115,0.000000,0.000001,0.000016,2.000000, 2.012454, 0.119569, 0.009009,0.000000, 0.000000, 0.000000, -0.015037, 0.000001, -0.000015
1.897494,0.000000,0.000000,0.000000,0.000000,0.000000,0.000000,0.000000,0.000000,0.000000,0.000000,-0.000003,-0.000123,0.000000,0.000001,0.000013,2.000000, 2.012454, 0.119568, 0.013229,0.000000, 0.000000, 0.000000, -0.015037, 0.000001, -0.000015
1.907975,0.000000,0.000000,0.000000,0.000000,0.000000,0.000000,0.000000,0.000000,0.000000,0.000000,-0.000003,-0.000123,0.000000,0.000001,0.000013,2.000000, 2.012454, 0.119568, 0.000590,0.000000, 0.000000, 0.000000, -0.015037, 0.000001, -0.000015
1.918959,0.000000,0.000000,0.000000,0.000000,0.000000,0.000000,0.000000,0.000000,0.000000,0.000000,-0.000003,-0.000123,0.000000,0.000001,0.000010,2.000000, 2.012454, 0.119568, -0.008699,0.000000, 0.000000, 0.000000, -0.015036, 0.000001, -0.000015
1.927956,0.000000,0.000000,0.000000,0.000000,0.000000,0.000000,0.000000,0.000000,0.000000,0.000000,-0.000003,-0.000123,0.000000,0.000001,0.000010,2.000000, 2.012454, 0.119568, -0.006232,0.000000, 0.000000, 0.000000, -0.015036, 0.000001, -0.000015
1.937757,0.000000,0.000000,0.000000,0.000000,0.000000,0.000000,0.000000,0.000000,0.000000,-0.000000,-0.000004,-0.000153,0.000000,0.000001,0.000008,2.000000, 2.012454, 0.119568, 0.007073,0.000000, 0.000000, 0.000000, -0.015036, 0.000001, -0.000015
1.948367,0.000000,0.000000,0.000000,0.000000,0.000000,0.000000,0.000000,0.000000,0.000000,-0.000000,-0.000004,-0.000153,0.000000,0.000001,0.000008,2.000000, 2.012454, 0.119568, 0.001070,0.000000, 0.000000, 0.000000, -0.015036, 0.000001, -0.000015
1.958112,0.000000,0.000000,0.000000,0.000000,0.000000,0.000000,0.000000,0.000000,0.000000,0.000000,-0.000004,-0.000151,0.000000,0.000001,0.000004,2.000000, 2.012454, 0.119568, -0.005144,0.000000, 0.000000, 0.000000, -0.015036, 0.000001, -0.000015
1.969565,0.000000,0.000000,0.000000,0.000000,0.000000,0.000000,0.000000,0.000000,0.000000,0.000000,-0.000004,-0.000151,0.000000,0.000001,0.000004,2.000000, 2.012454, 0.119568, -0.001415,0.000000, 0.000000, 0.000000, -0.015036, 0.000001, -0.000015
1.978186,0.000000,0.000000,0.000000,0.000000,0.000000,0.000000,0.000000,0.000000,0.000000,0.000000,-0.000004,-0.000156,0.000000,0.000001,0.000001,2.000000, 2.012454, 0.119568, 0.006986,0.000000, 0.000000, 0.000000, -0.015035, 0.000000, -0.000015
1.988860,0.000000,0.000000,0.000000,0.000000,0.000000,0.000000,0.000000,0.000000,0.000000,0.000000,-0.000004,-0.000156,0.000000,0.000001,0.000001,2.000000, 2.012454, 0.119568, 0.000559,0.000000, 0.000000, 0.000000, -0.015035, 0.000000, -0.000015
1.998751,0.000000,0.000000,0.000000,0.000000,0.000000,0.000000,0.000000,0.000000,0.000000,-0.000000,-0.000004,-0.000155,0.000000,0.000001,-0.000002,2.000000, 2.012454, 0.119568, 0.011300,0.000000, 0.000000, 0.000000, -0.015035, 0.000000, -0.000015
2.009117,0.000000,0.000000,0.000000,0.000000,0.000000,0.000000,0.000000,0.000000,0.000000,-0.000000,-0.000004,-0.000155,0.000000,0.000001,-0.000002,2.000000, 2.012454, 0.119568, 0.008554,0.000000, 0.000000, 0.000000, -0.015035, 0.000000, -0.000015
2.018932,0.000000,0.000000,0.000000,0.000000,0.000000,0.000000,0.000000,0.000000,0.000000,-0.000000,-0.000004,-0.000148,0.000000,0.000000,-0.000005,2.000000, 2.012454, 0.119568, 0.000294,0.000000, 0.000000, 0.000000, -0.015034, 0.000000, -0.000015
2.029444,0.000000,0.000000,0.000000,0.000000,0.000000,0.000000,0.000000,0.000000,0.000000,-0.000000,-0.000004,-0.000148,0.000000,0.000000,-0.000005,2.000000, 2.012454, 0.119568, 0.004365,0.000000, 0.000000, 0.000000, -0.015034, 0.000000, -0.000015
2.039098,0.000000,0.000000,0.000000,0.000000,0.000000,0.000000,0.000000,0.000000,0.000000,-0.000000,-0.000004,-0.000145,0.000000,0.000000,-0.000008,2.000000, 2.012454, 0.119568, 0.003592,0.000000, 0.000000, 0.000000, -0.015033, 0.000000, -0.000015
2.052439,0.000000,0.000000,0.000000,0.000000,0.000000,0.000000,0.000000,0.000000,0.000000,-0.000000,-0.000004,-0.000145,0.000000,0.000000,-0.000008,2.000000, 2.012454, 0.119568, -0.000151,0.000000, 0.000000, 0.000000, -0.015033, 0.000000, -0.000015
2.059350,0.000000,0.000000,0.000000,0.000000,0.000000,0.000000,0.000000,0.000000,0.000000,-0.000000,-0.000004,-0.000138,0.000000,0.000000,-0.000011,2.000000, 2.012454, 0.119568, -0.001859,0.000000, 0.000000, 0.000000, -0.015033, 0.000000, -0.000015
2.069919,0.000000,0.000000,0.000000,0.000000,0.000000,0.000000,0.000000,0.000000,0.000000,-0.000000,-0.000004,-0.000138,0.000000,0.000000,-0.000011,2.000000, 2.012454, 0.119568, 0.001277,0.000000, 0.000000, 0.000000, -0.015033, 0.000000, -0.000015
2.079651,0.000000,0.000000,0.000000,0.000000,0.000000,0.000000,0.000000,0.000000,0.000000,-0.000000,-0.000004,-0.000127,0.000000,0.000000,-0.000013,2.000000, 2.012454, 0.119569, 0.009075,0.000000, 0.000000, 0.000000, -0.015032, -0.000000, -0.000015
2.090123,0.000000,0.000000,0.000000,0.000000,0.000000,0.000000,0.000000,0.000000,0.000000,-0.000000,-0.000004,-0.000127,0.000000,0.000000,-0.000013,2.000000, 2.012454, 0.119569, 0.000433,0.000000, 0.000000, 0.000000, -0.015032, -0.000000, -0.000015
2.102608,0.000000,0.000000,0.000000,0.000000,0.000000,0.000000,0.000000,0.000000,0.000000,-0.000000,-0.000003,-0.000112,0.000000,0.000000,-0.000016,2.000000, 2.012454, 0.119569, 0.003784,0.000000, 0.000000, 0.000000, -0.015031, -0.000000, -0.000015
2.110403,0.000000,0.000000,0.000000,0.000000,0.000000,0.000000,0.000000,0.000000,0.000000,-0.000000,-0.000003,-0.000112,0.000000,0.000000,-0.000016,2.000000, 2.012454, 0.119569, -0.007364,0.000000, 0.000000, 0.000000, -0.015031, -0.000000, -0.000015
2.120101,0.000000,0.000000,0.000000,0.000000,0.000000,0.000000,0.000000,0.000000,0.000000,-0.000000,-0.000004,-0.000135,0.000000,0.000000,-0.000018,2.000000, 2.012454, 0.119569, 0.007381,0.000000, 0.000000, 0.000000, -0.015030, -0.000000, -0.000015
2.130528,0.000000,0.000000,0.000000,0.000000,0.000000,0.000000,0.000000,0.000000,0.000000,-0.000000,-0.000004,-0.000135,0.000000,0.000000,-0.000018,2.000000, 2.012454, 0.119569, 0.001557,0.000000, 0.000000, 0.000000, -0.015030, -0.000000, -0.000015
2.140290,0.000000,0.000000,0.000000,0.000000,0.000000,0.000000,0.000000,0.000000,0.000000,-0.000000,-0.000003,-0.000090,-0.000000,0.000000,-0.000020,2.000000, 2.012454, 0.119570, 0.008074,0.000000, 0.000000, 0.000000, -0.015030, -0.000000, -0.000015
2.152323,0.000000,0.000000,0.000000,0.000000,0.000000,0.000000,0.000000,0.000000,0.000000,-0.000000,-0.000003,-0.000090,-0.000000,0.000000,-0.000020,2.000000, 2.012454, 0.119570, 0.002042,0.000000, 0.000000, 0.000000, -0.015030, -0.000000, -0.000015
2.160474,0.000000,0.000000,0.000000,0.000000,0.000000,0.000000,0.000000,0.000000,0.000000,-0.000000,-0.000002,-0.000067,-0.000000,-0.000000,-0.000021,2.000000, 2.012454, 0.119570, 0.006983,0.000000, 0.000000, 0.000000, -0.015029, -0.000000, -0.000015
2.171020,0.000000,0.000000,0.000000,0.000000,0.000000,0.000000,0.000000,0.000000,0.000000,-0.000000,-0.000002,-0.000067,-0.000000,-0.000000,-0.000021,2.000000, 2.012454, 0.119570, 0.012874,0.000000, 0.000000, 0.000000, -0.015029, -0.000000, -0.000015
2.180859,0.000000,0.000000,0.000000,0.000000,0.000000,0.000000,0.000000,0.000000,0.000000,-0.000000,-0.000002,-0.000040,-0.000000,-0.000000,-0.000022,2.000000, 2.012454, 0.119570, 0.001105,0.000000, 0.000000, 0.000000, -0.015028, -0.000000, -0.000015
2.181889,0.000000,0.000000,0.000000,0.000000,0.000000,0.000000,0.000000,0.000000,0.000000,-0.000000,-0.000002,-0.000040,-0.000000,-0.000000,-0.000022,2.000000, 2.012454, 0.119570, -0.007724,0.000000, 0.000000, 0.000000, -0.015028, -0.000000, -0.000015
2.190841,0.000000,0.000000,0.000000,0.000000,0.000000,0.000000,0.000000,0.000000,0.000000,-0.000000,-0.000004,-0.000062,-0.000000,-0.000000,-0.000023,2.000000, 2.012454, 0.119571, 0.004985,0.000000, 0.000000, 0.000000, -0.015027, -0.000001, -0.000015
2.202300,0.000000,0.000000,0.000000,0.000000,0.000000,0.000000,0.000000,0.000000,0.000000,-0.000000,-0.000004,-0.000062,-0.000000,-0.000000,-0.000023,2.000000, 2.012454, 0.119571, -0.005067,0.000000, 0.000000, 0.000000, -0.015027, -0.000001, -0.000015
2.211146,0.000000,0.000000,0.000000,0.000000,0.000000,0.000000,0.000000,0.000000,0.000000,-0.000000,-0.000001,-0.000011,-0.000000,-0.000000,-0.000023,2.000000, 2.012454, 0.119571, -0.003526,0.000000, 0.000000, 0.000000, -0.015027, -0.000001, -0.000015
2.221665,0.000000,0.000000,0.000000,0.000000,0.000000,0.000000,0.000000,0.000000,0.000000,-0.000000,-0.000001,-0.000011,-0.000000,-0.000000,-0.000023,2.000000, 2.012454, 0.119571, 0.009259,0.000000, 0.000000, 0.000000, -0.015027, -0.000001, -0.000015
2.231493,0.000000,0.000000,0.000000,0.000000,0.000000,0.000000,0.000000,0.000000,0.000000,-0.000000,-0.000000,0.000004,-0.000000,-0.000000,-0.000023,2.000000, 2.012454, 0.119572, 0.012072,0.000000, 0.000000, 0.000000, -0.015026, -0.000001, -0.000015
2.241999,0.000000,0.000000,0.000000,0.000000,0.000000,0.000000,0.000000,0.000000,0.000000,-0.000000,-0.000000,0.000004,-0.000000,-0.000000,-0.000023,2.000000, 2.012454, 0.119572, 0.002118,0.000000, 0.000000, 0.000000, -0.015026, -0.000001, -0.000015
2.252290,0.000000,0.000000,0.000000,0.000000,0.000000,0.000000,0.000000,0.000000,0.000000,-0.000000,-0.000000,0.000002,-0.000000,-0.000000,-0.000023,2.000000, 2.012454, 0.119572, -0.001965,0.000000, 0.000000, 0.000000, -0.015026, -0.000001, -0.000015
2.262024,0.000000,0.000000,0.000000,0.000000,0.000000,0.000000,0.000000,0.000000,0.000000,-0.000000,-0.000000,0.000002,-0.000000,-0.000000,-0.000023,2.000000, 2.012454, 0.119572, 0.007074,0.000000, 0.000000, 0.000000, -0.015026, -0.000001, -0.000015
2.271891,0.000000,0.000000,0.000000,0.000000,0.000000,0.000000,0.000000,0.000000,0.000000,-0.000000,-0.000000,0.000007,-0.000000,-0.000000,-0.000023,2.000000, 2.012454, 0.119573, -0.000380,0.000000, 0.000000, 0.000000, -0.015025, -0.000001, -0.000015
2.282457,0.000000,0.000000,0.000000,0.000000,0.000000,0.000000,0.000000,0.000000,0.000000,-0.000000,-0.000000,0.000007,-0.000000,-0.000000,-0.000023,2.000000, 2.012454, 0.119573, 0.002002,0.000000, 0.000000, 0.000000, -0.015025, -0.000001, -0.000015
2.292053,0.000000,0.000000,0.000000,0.000000,0.000000,0.000000,0.000000,0.000000,0.000000,-0.000000,0.000001,0.000024,-0.000000,-0.000000,-0.000022,2.000000, 2.012454, 0.119573, 0.007216,0.000000, 0.000000, 0.000000, -0.015025, -0.000001, -0.000015
2.302651,0.000000,0.000000,0.000000,0.000000,0.000000,0.000000,0.000000,0.000000,0.000000,-0.000000,0.000001,0.000024,-0.000000,-0.000000,-0.000022,2.000000, 2.012454, 0.119573, 0.002002,0.000000, 0.000000, 0.000000, -0.015025, -0.000001, -0.000015
2.312211,0.000000,0.000000,0.000000,0.000000,0.000000,0.000000,0.000000,0.000000,0.000000,-0.000000,0.000001,0.000034,-0.000000,-0.000000,-0.000021,2.000000, 2.012454, 0.119574, 0.005864,0.000000, 0.000000, 0.000000, -0.015025, -0.000000, -0.000015
2.322703,0.000000,0.000000,0.000000,0.000000,0.000000,0.000000,0.000000,0.000000,0.000000,-0.000000,0.000001,0.000034,-0.000000,-0.000000,-0.000021,2.000000, 2.012454, 0.119574, 0.006019,0.000000, 0.000000, 0.000000, -0.015025, -0.000000, -0.000015
2.336268,0.000000,0.000000,0.000000,0.000000,0.000000,0.000000,0.000000,0.000000,0.000000,-0.000000,0.000001,0.000040,-0.000000,-0.000000,-0.000021,2.000000, 2.012454, 0.119574, -0.005265,0.000000, 0.000000, 0.000000, -0.015024, -0.000000, -0.000015
2.342930,0.000000,0.000000,0.000000,0.000000,0.000000,0.000000,0.000000,0.000000,0.000000,-0.000000,0.000001,0.000040,-0.000000,-0.000000,-0.000021,2.000000, 2.012454, 0.119574, 0.007847,0.000000, 0.000000, 0.000000, -0.015024, -0.000000, -0.000015
2.352724,0.000000,0.000000,0.000000,0.000000,0.000000,0.000000,0.000000,0.000000,0.000000,-0.000000,0.000001,0.000045,-0.000000,-0.000000,-0.000020,2.000000, 2.012454, 0.119574, -0.004624,0.000000, 0.000000, 0.000000, -0.015024, -0.000000, -0.000015
2.363096,0.000000,0.000000,0.000000,0.000000,0.000000,0.000000,0.000000,0.000000,0.000000,-0.000000,0.000001,0.000045,-0.000000,-0.000000,-0.000020,2.000000, 2.012454, 0.119574, 0.001477,0.000000, 0.000000, 0.000000, -0.015024, -0.000000, -0.000015
2.372838,0.000000,0.000000,0.000000,0.000000,0.000000,0.000000,0.000000,0.000000,0.000000,-0.000000,0.000001,0.000049,-0.000000,-0.000000,-0.000019,2.000000, 2.012454, 0.119575, -0.000009,0.000000, 0.000000, 0.000000, -0.015024, -0.000000, -0.000015
2.383280,0.000000,0.000000,0.000000,0.000000,0.000000,0.000000,0.000000,0.000000,0.000000,-0.000000,0.000001,0.000049,-0.000000,-0.000000,-0.000019,2.000000, 2.012454, 0.119575, 0.000331,0.000000, 0.000000, 0.000000, -0.015024, -0.000000, -0.000015
2.392922,0.000000,0.000000,0.000000,0.000000,0.000000,0.000000,0.000000,0.000000,0.000000,-0.000000,0.000001,0.000059,-0.000000,-0.000000,-0.000018,2.000000, 2.012454, 0.119575, 0.000669,0.000000, 0.000000, 0.000000, -0.015024, -0.000000, -0.000015
2.403656,0.000000,0.000000,0.000000,0.000000,0.000000,0.000000,0.000000,0.000000,0.000000,-0.000000,0.000001,0.000059,-0.000000,-0.000000,-0.000018,2.000000, 2.012454, 0.119575, 0.011296,0.000000, 0.000000, 0.000000, -0.015024, -0.000000, -0.000015
2.413076,0.000000,0.000000,0.000000,0.000000,0.000000,0.000000,0.000000,0.000000,0.000000,-0.000000,0.000001,0.000062,-0.000000,-0.000000,-0.000016,2.000000, 2.012454, 0.119575, 0.009197,0.000000, 0.000000, 0.000000, -0.015024, -0.000000, -0.000015
2.423956,0.000000,0.000000,0.000000,0.000000,0.000000,0.000000,0.000000,0.000000,0.000000,-0.000000,0.000001,0.000062,-0.000000,-0.000000,-0.000016,2.000000, 2.012454, 0.119575, -0.001387,0.000000, 0.000000, 0.000000, -0.015024, -0.000000, -0.000015
2.436341,0.000000,0.000000,0.000000,0.000000,0.000000,0.000000,0.000000,0.000000,0.000000,-0.000000,0.000001,0.000048,-0.000000,0.000000,-0.000015,2.000000, 2.012454, 0.119576, -0.000207,0.000000, 0.000000, 0.000000, -0.015024, 0.000000, -0.000015
2.443741,0.000000,0.000000,0.000000,0.000000,0.000000,0.000000,0.000000,0.000000,0.000000,-0.000000,0.000001,0.000048,-0.000000,0.000000,-0.000015,2.000000, 2.012454, 0.119576, 0.004813,0.000000, 0.000000, 0.000000, -0.015024, 0.000000, -0.000015
2.453547,0.000000,0.000000,0.000000,0.000000,0.000000,0.000000,0.000000,0.000000,0.000000,-0.000000,0.000002,0.000078,-0.000000,0.000000,-0.000014,2.000000, 2.012454, 0.119576, -0.003488,0.000000, 0.000000, 0.000000, -0.015024, 0.000000, -0.000015
2.463904,0.000000,0.000000,0.000000,0.000000,0.000000,0.000000,0.000000,0.000000,0.000000,-0.000000,0.000002,0.000078,-0.000000,0.000000,-0.000014,2.000000, 2.012454, 0.119576, 0.005090,0.000000, 0.000000, 0.000000, -0.015024, 0.000000, -0.000015
2.473706,0.000000,0.000000,0.000000,0.000000,0.000000,0.000000,0.000000,0.000000,0.000000,-0.000000,0.000002,0.000070,-0.000000,0.000000,-0.000012,2.000000, 2.012454, 0.119576, -0.001304,0.000000, 0.000000, 0.000000, -0.015025, 0.000000, -0.000015
2.485998,0.000000,0.000000,0.000000,0.000000,0.000000,0.000000,0.000000,0.000000,0.000000,-0.000000,0.000002,0.000070,-0.000000,0.000000,-0.000012,2.000000, 2.012454, 0.119576, 0.001469,0.000000, 0.000000, 0.000000, -0.015025, 0.000000, -0.000015
2.493665,0.000000,0.000000,0.000000,0.000000,0.000000,0.000000,0.000000,0.000000,0.000000,-0.000000,0.000002,0.000074,-0.000000,0.000000,-0.000011,2.000000, 2.012454, 0.119577, 0.004316,0.000000, 0.000000, 0.000000, -0.015025, 0.000001, -0.000015
2.504299,0.000000,0.000000,0.000000,0.000000,0.000000,0.000000,0.000000,0.000000,0.000000,-0.000000,0.000002,0.000074,-0.000000,0.000000,-0.000011,2.000000, 2.012454, 0.119577, 0.000373,0.000000, 0.000000, 0.000000, -0.015025, 0.000001, -0.000015
2.514042,0.000000,0.000000,0.000000,0.000000,0.000000,0.000000,0.000000,0.000000,0.000000,-0.000000,0.000001,0.000064,-0.000000,0.000000,-0.000010,2.000000, 2.012454, 0.119577, -0.008823,0.000000, 0.000000, 0.000000, -0.015026, 0.000001, -0.000015
2.524611,0.000000,0.000000,0.000000,0.000000,0.000000,0.000000,0.000000,0.000000,0.000000,-0.000000,0.000001,0.000064,-0.000000,0.000000,-0.000010,2.000000, 2.012454, 0.119577, 0.001542,0.000000, 0.000000, 0.000000, -0.015026, 0.000001, -0.000015
2.535819,0.000000,0.000000,0.000000,0.000000,0.000000,0.000000,0.000000,0.000000,0.000000,-0.000000,0.000001,0.000057,-0.000000,0.000000,-0.000008,2.000000, 2.012454, 0.119577, 0.003335,0.000000, 0.000000, 0.000000, -0.015026, 0.000001, -0.000015
2.544852,0.000000,0.000000,0.000000,0.000000,0.000000,0.000000,0.000000,0.000000,0.000000,-0.000000,0.000001,0.000057,-0.000000,0.000000,-0.000008,2.000000, 2.012454, 0.119577, -0.000210,0.000000, 0.000000, 0.000000, -0.015026, 0.000001, -0.000015
2.554621,0.000000,0.000000,0.000000,0.000000,0.000000,0.000000,0.000000,0.000000,0.000000,-0.000000,0.000003,0.000120,-0.000000,0.000000,-0.000006,2.000000, 2.012454, 0.119577, -0.002502,0.000000, 0.000000, 0.000000, -0.015027, 0.000001, -0.000015
2.565308,0.000000,0.000000,0.000000,0.000000,0.000000,0.000000,0.000000,0.000000,0.000000,-0.000000,0.000003,0.000120,-0.000000,0.000000,-0.000006,2.000000, 2.012454, 0.119577, 0.011578,0.000000, 0.000000, 0.000000, -0.015027, 0.000001, -0.000015
2.574615,0.000000,0.000000,0.000000,0.000000,0.000000,0.000000,0.000000,0.000000,0.000000,-0.000000,0.000004,0.000139,-0.000000,0.000000,-0.000003,2.000000, 2.012454, 0.119577, 0.001526,0.000000, 0.000000, 0.000000, -0.015027, 0.000001, -0.000015
2.586295,0.000000,0.000000,0.000000,0.000000,0.000000,0.000000,0.000000,0.000000,0.000000,-0.000000,0.000004,0.000139,-0.000000,0.000000,-0.000003,2.000000, 2.012454, 0.119577, 0.002611,0.000000, 0.000000, 0.000000, -0.015027, 0.000001, -0.000015
2.594690,0.000000,0.000000,0.000000,0.000000,0.000000,0.000000,0.000000,0.000000,0.000000,-0.000000,0.000004,0.000146,-0.000000,0.000000,-0.000000,2.000000, 2.012454, 0.119577, 0.010339,0.000000, 0.000000, 0.000000, -0.015028, 0.000001, -0.000015
2.605276,0.000000,0.000000,0.000000,0.000000,0.000000,0.000000,0.000000,0.000000,0.000000,-0.000000,0.000004,0.000146,-0.000000,0.000000,-0.000000,2.000000, 2.012454, 0.119577, 0.003587,0.000000, 0.000000, 0.000000, -0.015028, 0.000001, -0.000015
2.615060,0.000000,0.000000,0.000000,0.000000,0.000000,0.000000,0.000000,0.000000,0.000000,0.000000,0.000004,0.000137,-0.000000,0.000000,0.000002,2.000000, 2.012454, 0.119577, 0.004234,0.000000, 0.000000, 0.000000, -0.015029, 0.000002, -0.000015
2.625493,0.000000,0.000000,0.000000,0.000000,0.000000,0.000000,0.000000,0.000000,0.000000,0.000000,0.000004,0.000137,-0.000000,0.000000,0.000002,2.000000, 2.012454, 0.119577, 0.003002,0.000000, 0.000000, 0.000000, -0.015029, 0.000002, -0.000015
2.636540,0.000000,0.000000,0.000000,0.000000,0.000000,0.000000,0.000000,0.000000,0.000000,0.000000,0.000004,0.000127,-0.000000,0.000001,0.000005,2.000000, 2.012454, 0.119577, 0.006589,0.000000, 0.000000, 0.000000, -0.015029, 0.000002, -0.000015
2.645720,0.000000,0.000000,0.000000,0.000000,0.000000,0.000000,0.000000,0.000000,0.000000,0.000000,0.000004,0.000127,-0.000000,0.000001,0.000005,2.000000, 2.012454, 0.119577, 0.001382,0.000000, 0.000000, 0.000000, -0.015029, 0.000002, -0.000015
2.655546,0.000000,0.000000,0.000000,0.000000,0.000000,0.000000,0.000000,0.000000,0.000000,0.000000,0.000004,0.000133,-0.000000,0.000001,0.000008,2.000000, 2.012454, 0.119577, 0.005685,0.000000, 0.000000, 0.000000, -0.015030, 0.000002, -0.000015
2.668992,0.000000,0.000000,0.000000,0.000000,0.000000,0.000000,0.000000,0.000000,0.000000,0.000000,0.000004,0.000133,-0.000000,0.000001,0.000008,2.000000, 2.012454, 0.119577, 0.006952,0.000000, 0.000000, 0.000000, -0.015030, 0.000002, -0.000015
2.675582,0.000000,0.000000,0.000000,0.000000,0.000000,0.000000,0.000000,0.000000,0.000000,0.000000,0.000003,0.000093,-0.000000,0.000001,0.000009,2.000000, 2.012454, 0.119577, 0.006314,0.000000, 0.000000, 0.000000, -0.015031, 0.000002, -0.000015
2.686218,0.000000,0.000000,0.000000,0.000000,0.000000,0.000000,0.000000,0.000000,0.000000,0.000000,0.000003,0.000093,-0.000000,0.000001,0.000009,2.000000, 2.012454, 0.119577, 0.003866,0.000000, 0.000000, 0.000000, -0.015031, 0.000002, -0.000015
2.695717,0.000000,0.000000,0.000000,0.000000,0.000000,0.000000,0.000000,0.000000,0.000000,0.000000,0.000001,0.000047,-0.000000,0.000001,0.000010,2.000000, 2.012454, 0.119576, 0.006020,0.000000, 0.000000, 0.000000, -0.015032, 0.000002, -0.000015
2.706315,0.000000,0.000000,0.000000,0.000000,0.000000,0.000000,0.000000,0.000000,0.000000,0.000000,0.000001,0.000047,-0.000000,0.000001,0.000010,2.000000, 2.012454, 0.119576, 0.004734,0.000000, 0.000000, 0.000000, -0.015032, 0.000002, -0.000015
2.719015,0.000000,0.000000,0.000000,0.000000,0.000000,0.000000,0.000000,0.000000,0.000000,0.000000,0.000001,0.000040,-0.000000,0.000001,0.000011,2.000000, 2.012454, 0.119576, 0.006652,0.000000, 0.000000, 0.000000, -0.015033, 0.000003, -0.000015
2.726427,0.000000,0.000000,0.000000,0.000000,0.000000,0.000000,0.000000,0.000000,0.000000,0.000000,0.000001,0.000040,-0.000000,0.000001,0.000011,2.000000, 2.012454, 0.119576, 0.001598,0.000000, 0.000000, 0.000000, -0.015033, 0.000003, -0.000015
2.736351,0.000000,0.000000,0.000000,0.000000,0.000000,0.000000,0.000000,0.000000,0.000000,0.000000,0.000002,0.000057,-0.000000,0.000001,0.000012,2.000000, 2.012454, 0.119576, 0.013714,0.000000, 0.000000, 0.000000, -0.015033, 0.000003, -0.000015
2.746839,0.000000,0.000000,0.000000,0.000000,0.000000,0.000000,0.000000,0.000000,0.000000,0.000000,0.000002,0.000057,-0.000000,0.000001,0.000012,2.000000, 2.012454, 0.119576, 0.010776,0.000000, 0.000000, 0.000000, -0.015033, 0.000003, -0.000015
2.756536,0.000000,0.000000,0.000000,0.000000,0.000000,0.000000,0.000000,0.000000,0.000000,0.000000,0.000002,0.000051,-0.000000,0.000001,0.000013,2.000000, 2.012454, 0.119576, -0.000026,0.000000, 0.000000, 0.000000, -0.015034, 0.000003, -0.000015
2.768930,0.000000,0.000000,0.000000,0.000000,0.000000,0.000000,0.000000,0.000000,0.000000,0.000000,0.000002,0.000051,-0.000000,0.000001,0.000013,2.000000, 2.012454, 0.119576, -0.004282,0.000000, 0.000000, 0.000000, -0.015034, 0.000003, -0.000015
2.776827,0.000000,0.000000,0.000000,0.000000,0.000000,0.000000,0.000000,0.000000,0.000000,0.000000,0.000001,0.000039,-0.000000,0.000001,0.000014,2.000000, 2.012454, 0.119575, 0.000159,0.000000, 0.000000, 0.000000, -0.015035, 0.000003, -0.000015
2.787302,0.000000,0.000000,0.000000,0.000000,0.000000,0.000000,0.000000,0.000000,0.000000,0.000000,0.000001,0.000039,-0.000000,0.000001,0.000014,2.000000, 2.012454, 0.119575, 0.003271,0.000000, 0.000000, 0.000000, -0.015035, 0.000003, -0.000015
2.797033,0.000000,0.000000,0.000000,0.000000,0.000000,0.000000,0.000000,0.000000,0.000000,0.000000,0.000001,0.000037,-0.000000,0.000001,0.000015,2.000000, 2.012454, 0.119575, 0.000438,0.000000, 0.000000, 0.000000, -0.015036, 0.000003, -0.000015
2.807498,0.000000,0.000000,0.000000,0.000000,0.000000,0.000000,0.000000,0.000000,0.000000,0.000000,0.000001,0.000037,-0.000000,0.000001,0.000015,2.000000, 2.012454, 0.119575, 0.004157,0.000000, 0.000000, 0.000000, -0.015036, 0.000003, -0.000015
2.818862,0.000000,0.000000,0.000000,0.000000,0.000000,0.000000,0.000000,0.000000,0.000000,0.000000,0.000001,0.000033,-0.000000,0.000001,0.000016,2.000000, 2.012454, 0.119575, 0.002005,0.000000, 0.000000, 0.000000, -0.015036, 0.000003, -0.000015
2.827794,0.000000,0.000000,0.000000,0.000000,0.000000,0.000000,0.000000,0.000000,0.000000,0.000000,0.000001,0.000033,-0.000000,0.000001,0.000016,2.000000, 2.012454, 0.119575, -0.000028,0.000000, 0.000000, 0.000000, -0.015036, 0.000003, -0.000015
2.837563,0.000000,0.000000,0.000000,0.000000,0.000000,0.000000,0.000000,0.000000,0.000000,0.000000,0.000001,0.000019,-0.000000,0.000001,0.000016,2.000000, 2.012454, 0.119575, 0.004455,0.000000, 0.000000, 0.000000, -0.015037, 0.000003, -0.000015
2.847959,0.000000,0.000000,0.000000,0.000000,0.000000,0.000000,0.000000,0.000000,0.000000,0.000000,0.000001,0.000019,-0.000000,0.000001,0.000016,2.000000, 2.012454, 0.119575, 0.007929,0.000000, 0.000000, 0.000000, -0.015037, 0.000003, -0.000015
2.857743,0.000000,0.000000,0.000000,0.000000,0.000000,0.000000,0.000000,0.000000,0.000000,0.000000,0.000001,0.000026,-0.000000,0.000001,0.000016,2.000000, 2.012454, 0.119574, -0.001138,0.000000, 0.000000, 0.000000, -0.015038, 0.000003, -0.000015
2.868893,0.000000,0.000000,0.000000,0.000000,0.000000,0.000000,0.000000,0.000000,0.000000,0.000000,0.000001,0.000026,-0.000000,0.000001,0.000016,2.000000, 2.012454, 0.119574, 0.018330,0.000000, 0.000000, 0.000000, -0.015038, 0.000003, -0.000015
2.877765,0.000000,0.000000,0.000000,0.000000,0.000000,0.000000,0.000000,0.000000,0.000000,0.000000,0.000001,0.000019,-0.000000,0.000001,0.000017,2.000000, 2.012454, 0.119574, -0.000355,0.000000, 0.000000, 0.000000, -0.015038, 0.000003, -0.000015
2.888334,0.000000,0.000000,0.000000,0.000000,0.000000,0.000000,0.000000,0.000000,0.000000,0.000000,0.000001,0.000019,-0.000000,0.000001,0.000017,2.000000, 2.012454, 0.119574, -0.007370,0.000000, 0.000000, 0.000000, -0.015038, 0.000003, -0.000015
2.898467,0.000000,0.000000,0.000000,0.000000,0.000000,0.000000,0.000000,0.000000,0.000000,0.000000,0.000001,0.000007,-0.000000,0.000001,0.000017,2.000000, 2.012454, 0.119574, 0.003098,0.000000, 0.000000, 0.000000, -0.015039, 0.000003, -0.000015
2.908656,0.000000,0.000000,0.000000,0.000000,0.000000,0.000000,0.000000,0.000000,0.000000,0.000000,0.000001,0.000007,-0.000000,0.000001,0.000017,2.000000, 2.012454, 0.119574, -0.002287,0.000000, 0.000000, 0.000000, -0.015039, 0.000003, -0.000015
2.918772,0.000000,0.000000,0.000000,0.000000,0.000000,0.000000,0.000000,0.000000,0.000000,0.000000,0.000000,-0.000007,-0.000000,0.000001,0.000017,2.000000, 2.012454, 0.119573, 0.003102,0.000000, 0.000000, 0.000000, -0.015039, 0.000003, -0.000015
2.928908,0.000000,0.000000,0.000000,0.000000,0.000000,0.000000,0.000000,0.000000,0.000000,0.000000,0.000000,-0.000007,-0.000000,0.000001,0.000017,2.000000, 2.012454, 0.119573, -0.001300,0.000000, 0.000000, 0.000000, -0.015039, 0.000003, -0.000015
2.938650,0.000000,0.000000,0.000000,0.000000,0.000000,0.000000,0.000000,0.000000,0.000000,0.000000,0.000000,-0.000012,0.000000,0.000001,0.000017,2.000000, 2.012454, 0.119573, -0.008980,0.000000, 0.000000, 0.000000, -0.015040, 0.000003, -0.000015
2.949399,0.000000,0.000000,0.000000,0.000000,0.000000,0.000000,0.000000,0.000000,0.000000,0.000000,0.000000,-0.000012,0.000000,0.000001,0.000017,2.000000, 2.012454, 0.119573, 0.005701,0.000000, 0.000000, 0.000000, -0.015040, 0.000003, -0.000015
2.962432,0.000000,0.000000,0.000000,0.000000,0.000000,0.000000,0.000000,0.000000,0.000000,0.000000,0.000000,-0.000017,0.000000,0.000001,0.000016,2.000000, 2.012454, 0.119573, 0.004306,0.000000, 0.000000, 0.000000, -0.015040, 0.000003, -0.000015
2.969260,0.000000,0.000000,0.000000,0.000000,0.000000,0.000000,0.000000,0.000000,0.000000,0.000000,0.000000,-0.000017,0.000000,0.000001,0.000016,2.000000, 2.012454, 0.119573, 0.001796,0.000000, 0.000000, 0.000000, -0.015040, 0.000003, -0.000015
2.979100,0.000000,0.000000,0.000000,0.000000,0.000000,0.000000,0.000000,0.000000,0.000000,0.000000,-0.000000,-0.000016,0.000000,0.000001,0.000016,2.000000, 2.012454, 0.119572, -0.005399,0.000000, 0.000000, 0.000000, -0.015040, 0.000003, -0.000015
2.989592,0.000000,0.000000,0.000000,0.000000,0.000000,0.000000,0.000000,0.000000,0.000000,0.000000,-0.000000,-0.000016,0.000000,0.000001,0.000016,2.000000, 2.012454, 0.119572, -0.009064,0.000000, 0.000000, 0.000000, -0.015040, 0.000003, -0.000015
3.002368,0.000000,0.000000,0.000000,0.000000,0.000000,0.000000,0.000000,0.000000,0.000000,0.000000,0.000000,-0.000015,0.000000,0.000001,0.000016,2.000000, 2.012454, 0.119572, 0.000404,0.000000, 0.000000, 0.000000, -0.015040, 0.000003, -0.000015
3.009783,0.000000,0.000000,0.000000,0.000000,0.000000,0.000000,0.000000,0.000000,0.000000,0.000000,0.000000,-0.000015,0.000000,0.000001,0.000016,2.000000, 2.012454, 0.119572, -0.006795,0.000000, 0.000000, 0.000000, -0.015040, 0.000003, -0.000015
3.019532,0.000000,0.000000,0.000000,0.000000,0.000000,0.000000,0.000000,0.000000,0.000000,0.000000,-0.000000,-0.000033,0.000000,0.000001,0.000015,2.000000, 2.012454, 0.119572, 0.001417,0.000000, 0.000000, 0.000000, -0.015040, 0.000002, -0.000015
3.029901,0.000000,0.000000,0.000000,0.000000,0.000000,0.000000,0.000000,0.000000,0.000000,0.000000,-0.000000,-0.000033,0.000000,0.000001,0.000015,2.000000, 2.012454, 0.119572, 0.005375,0.000000, 0.000000, 0.000000, -0.015040, 0.000002, -0.000015
3.039657,0.000000,0.000000,0.000000,0.000000,0.000000,0.000000,0.000000,0.000000,0.000000,0.000000,-0.000001,-0.000040,0.000000,0.000001,0.000014,2.000000, 2.012454, 0.119571, 0.008161,0.000000, 0.000000, 0.000000, -0.015040, 0.000002, -0.000015
3.052135,0.000000,0.000000,0.000000,0.000000,0.000000,0.000000,0.000000,0.000000,0.000000,0.000000,-0.000001,-0.000040,0.000000,0.000001,0.000014,2.000000, 2.012454, 0.119571, -0.004258,0.000000, 0.000000, 0.000000, -0.015040, 0.000002, -0.000015
3.059851,0.000000,0.000000,0.000000,0.000000,0.000000,0.000000,0.000000,0.000000,0.000000,0.000000,-0.000001,-0.000044,0.000000,0.000001,0.000013,2.000000, 2.012454, 0.119571, 0.001435,0.000000, 0.000000, 0.000000, -0.015040, 0.000002, -0.000015
3.070453,0.000000,0.000000,0.000000,0.000000,0.000000,0.000000,0.000000,0.000000,0.000000,0.000000,-0.000001,-0.000044,0.000000,0.000001,0.000013,2.000000, 2.012454, 0.119571, -0.006542,0.000000, 0.000000, 0.000000, -0.015040, 0.000002, -0.000015
3.080219,0.000000,0.000000,0.000000,0.000000,0.000000,0.000000,0.000000,0.000000,0.000000,0.000000,-0.000001,-0.000056,0.000000,0.000001,0.000012,2.000000, 2.012454, 0.119571, -0.004572,0.000000, 0.000000, 0.000000, -0.015040, 0.000002, -0.000015
3.090660,0.000000,0.000000,0.000000,0.000000,0.000000,0.000000,0.000000,0.000000,0.000000,0.000000,-0.000001,-0.000056,0.000000,0.000001,0.000012,2.000000, 2.012454, 0.119571, 0.008179,0.000000, 0.000000, 0.000000, -0.015040, 0.000002, -0.000015
3.102318,0.000000,0.000000,0.000000,0.000000,0.000000,0.000000,0.000000,0.000000,0.000000,0.000000,-0.000001,-0.000052,0.000000,0.000001,0.000011,2.000000, 2.012454, 0.119571, 0.003140,0.000000, 0.000000, 0.000000, -0.015039, 0.000002, -0.000015
3.110876,0.000000,0.000000,0.000000,0.000000,0.000000,0.000000,0.000000,0.000000,0.000000,0.000000,-0.000001,-0.000052,0.000000,0.000001,0.000011,2.000000, 2.012454, 0.119571, 0.008572,0.000000, 0.000000, 0.000000, -0.015039, 0.000002, -0.000015
3.120600,0.000000,0.000000,0.000000,0.000000,0.000000,0.000000,0.000000,0.000000,0.000000,0.000000,-0.000001,-0.000064,0.000000,0.000001,0.000010,2.000000, 2.012454, 0.119570, -0.005771,0.000000, 0.000000, 0.000000, -0.015039, 0.000001, -0.000015
3.131362,0.000000,0.000000,0.000000,0.000000,0.000000,0.000000,0.000000,0.000000,0.000000,0.000000,-0.000001,-0.000064,0.000000,0.000001,0.000010,2.000000, 2.012454, 0.119570, 0.013032,0.000000, 0.000000, 0.000000, -0.015039, 0.000001, -0.000015
3.131660,0.000000,0.000000,0.000000,0.000000,0.000000,0.000000,0.000000,0.000000,0.000000,0.000000,-0.000003,-0.000124,0.000000,0.000001,0.000008,2.000000, 2.012453, 0.119570, 0.016971,0.000000, 0.000000, 0.000000, -0.015038, 0.000001, -0.000015
3.141326,0.000000,0.000000,0.000000,0.000000,0.000000,0.000000,0.000000,0.000000,0.000000,0.000000,-0.000003,-0.000124,0.000000,0.000001,0.000008,2.000000, 2.012453, 0.119570, -0.000836,0.000000, 0.000000, 0.000000, -0.015038, 0.000001, -0.000015
3.150983,0.000000,0.000000,0.000000,0.000000,0.000000,0.000000,0.000000,0.000000,0.000000,0.000000,-0.000001,-0.000067,0.000000,0.000001,0.000007,2.000000, 2.012453, 0.119570, 0.003651,0.000000, 0.000000, 0.000000, -0.015038, 0.000001, -0.000015
3.162088,0.000000,0.000000,0.000000,0.000000,0.000000,0.000000,0.000000,0.000000,0.000000,0.000000,-0.000001,-0.000067,0.000000,0.000001,0.000007,2.000000, 2.012453, 0.119570, 0.005195,0.000000, 0.000000, 0.000000, -0.015038, 0.000001, -0.000015
3.171324,0.000000,0.000000,0.000000,0.000000,0.000000,0.000000,0.000000,0.000000,0.000000,0.000000,-0.000002,-0.000069,0.000000,0.000001,0.000006,2.000000, 2.012453, 0.119570, 0.004674,0.000000, 0.000000, 0.000000, -0.015037, 0.000001, -0.000015
3.182145,0.000000,0.000000,0.000000,0.000000,0.000000,0.000000,0.000000,0.000000,0.000000,0.000000,-0.000002,-0.000069,0.000000,0.000001,0.000006,2.000000, 2.012453, 0.119570, -0.003794,0.000000, 0.000000, 0.000000, -0.015037, 0.000001, -0.000015
3.191691,0.000000,0.000000,0.000000,0.000000,0.000000,0.000000,0.000000,0.000000,0.000000,0.000000,-0.000002,-0.000074,0.000000,0.000001,0.000004,2.000000, 2.012453, 0.119570, 0.003656,0.000000, 0.000000, 0.000000, -0.015036, 0.000000, -0.000015
3.202247,0.000000,0.000000,0.000000,0.000000,0.000000,0.000000,0.000000,0.000000,0.000000,0.000000,-0.000002,-0.000074,0.000000,0.000001,0.000004,2.000000, 2.012453, 0.119570, 0.007729,0.000000, 0.000000, 0.000000, -0.015036, 0.000000, -0.000015
3.212538,0.000000,0.000000,0.000000,0.000000,0.000000,0.000000,0.000000,0.000000,0.000000,0.000000,-0.000002,-0.000067,0.000000,0.000001,0.000003,2.000000, 2.012453, 0.119570, -0.003222,0.000000, 0.000000, 0.000000, -0.015036, 0.000000, -0.000015
3.222289,0.000000,0.000000,0.000000,0.000000,0.000000,0.000000,0.000000,0.000000,0.000000,0.000000,-0.000002,-0.000067,0.000000,0.000001,0.000003,2.000000, 2.012453, 0.119570, -0.001316,0.000000, 0.000000, 0.000000, -0.015036, 0.000000, -0.000015
3.232392,0.000000,0.000000,0.000000,0.000000,0.000000,0.000000,0.000000,0.000000,0.000000,-0.000000,-0.000002,-0.000078,0.000000,0.000001,0.000001,2.000000, 2.012453, 0.119570, 0.004258,0.000000, 0.000000, 0.000000, -0.015035, -0.000000, -0.000015
3.242562,0.000000,0.000000,0.000000,0.000000,0.000000,0.000000,0.000000,0.000000,0.000000,-0.000000,-0.000002,-0.000078,0.000000,0.000001,0.000001,2.000000, 2.012453, 0.119570, 0.003943,0.000000, 0.000000, 0.000000, -0.015035, -0.000000, -0.000015
3.252398,0.000000,0.000000,0.000000,0.000000,0.000000,0.000000,0.000000,0.000000,0.000000,0.000000,-0.000002,-0.000072,0.000000,0.000001,-0.000000,2.000000, 2.012453, 0.119570, 0.002527,0.000000, 0.000000, 0.000000, -0.015034, -0.000000, -0.000015
3.262903,0.000000,0.000000,0.000000,0.000000,0.000000,0.000000,0.000000,0.000000,0.000000,0.000000,-0.000002,-0.000072,0.000000,0.000001,-0.000000,2.000000, 2.012453, 0.119570, -0.002240,0.000000, 0.000000, 0.000000, -0.015034, -0.000000, -0.000015
3.272604,0.000000,0.000000,0.000000,0.000000,0.000000,0.000000,0.000000,0.000000,0.000000,-0.000000,-0.000002,-0.000072,0.000000,0.000001,-0.000002,2.000000, 2.012453, 0.119570, 0.002665,0.000000, 0.000000, 0.000000, -0.015033, -0.000001, -0.000015
3.283112,0.000000,0.000000,0.000000,0.000000,0.000000,0.000000,0.000000,0.000000,0.000000,-0.000000,-0.000002,-0.000072,0.000000,0.000001,-0.000002,2.000000, 2.012453, 0.119570, 0.006876,0.000000, 0.000000, 0.000000, -0.015033, -0.000001, -0.000015
3.292843,0.000000,0.000000,0.000000,0.000000,0.000000,0.000000,0.000000,0.000000,0.000000,-0.000000,-0.000002,-0.000068,0.000000,0.000001,-0.000003,2.000000, 2.012453, 0.119570, 0.005248,0.000000, 0.000000, 0.000000, -0.015032, -0.000001, -0.000014
3.303294,0.000000,0.000000,0.000000,0.000000,0.000000,0.000000,0.000000,0.000000,0.000000,-0.000000,-0.000002,-0.000068,0.000000,0.000001,-0.000003,2.000000, 2.012453, 0.119570, 0.004363,0.000000, 0.000000, 0.000000, -0.015032, -0.000001, -0.000014
3.313056,0.000000,0.000000,0.000000,0.000000,0.000000,0.000000,0.000000,0.000000,0.000000,-0.000000,-0.000002,-0.000059,0.000000,0.000000,-0.000004,2.000000, 2.012453, 0.119570, -0.002229,0.000000, 0.000000, 0.000000, -0.015031, -0.000001, -0.000014
3.323672,0.000000,0.000000,0.000000,0.000000,0.000000,0.000000,0.000000,0.000000,0.000000,-0.000000,-0.000002,-0.000059,0.000000,0.000000,-0.000004,2.000000, 2.012453, 0.119570, 0.009715,0.000000, 0.000000, 0.000000, -0.015031, -0.000001, -0.000014
3.336205,0.000000,0.000000,0.000000,0.000000,0.000000,0.000000,0.000000,0.000000,0.000000,-0.000000,-0.000002,-0.000057,0.000000,0.000000,-0.000005,2.000000, 2.012453, 0.119570, 0.004542,0.000000, 0.000000, 0.000000, -0.015030, -0.000001, -0.000014
3.343810,0.000000,0.000000,0.000000,0.000000,0.000000,0.000000,0.000000,0.000000,0.000000,-0.000000,-0.000002,-0.000057,0.000000,0.000000,-0.000005,2.000000, 2.012453, 0.119570, -0.001398,0.000000, 0.000000, 0.000000, -0.015030, -0.000001, -0.000014
3.353462,0.000000,0.000000,0.000000,0.000000,0.000000,0.000000,0.000000,0.000000,0.000000,-0.000000,-0.000002,-0.000065,0.000000,0.000000,-0.000007,2.000000, 2.012453, 0.119570, -0.003466,0.000000, 0.000000, 0.000000, -0.015029, -0.000002, -0.000014
3.364006,0.000000,0.000000,0.000000,0.000000,0.000000,0.000000,0.000000,0.000000,0.000000,-0.000000,-0.000002,-0.000065,0.000000,0.000000,-0.000007,2.000000, 2.012453, 0.119570, -0.004254,0.000000, 0.000000, 0.000000, -0.015029, -0.000002, -0.000014
3.373666,0.000000,0.000000,0.000000,0.000000,0.000000,0.000000,0.000000,0.000000,0.000000,-0.000000,-0.000002,-0.000052,0.000000,0.000000,-0.000008,2.000000, 2.012453, 0.119570, 0.010623,0.000000, 0.000000, 0.000000, -0.015028, -0.000002, -0.000014
3.386874,0.000000,0.000000,0.000000,0.000000,0.000000,0.000000,0.000000,0.000000,0.000000,-0.000000,-0.000002,-0.000052,0.000000,0.000000,-0.000008,2.000000, 2.012453, 0.119570, 0.004949,0.000000, 0.000000, 0.000000, -0.015028, -0.000002, -0.000014
3.393729,0.000000,0.000000,0.000000,0.000000,0.000000,0.000000,0.000000,0.000000,0.000000,-0.000000,-0.000002,-0.000045,0.000000,0.000000,-0.000008,2.000000, 2.012453, 0.119570, 0.007247,0.000000, 0.000000, 0.000000, -0.015027, -0.000002, -0.000014
3.404344,0.000000,0.000000,0.000000,0.000000,0.000000,0.000000,0.000000,0.000000,0.000000,-0.000000,-0.000002,-0.000045,0.000000,0.000000,-0.000008,2.000000, 2.012453, 0.119570, 0.011765,0.000000, 0.000000, 0.000000, -0.015027, -0.000002, -0.000014
3.413981,0.000000,0.000000,0.000000,0.000000,0.000000,0.000000,0.000000,0.000000,0.000000,-0.000000,-0.000001,-0.000037,0.000000,0.000000,-0.000009,2.000000, 2.012453, 0.119571, 0.001002,0.000000, 0.000000, 0.000000, -0.015026, -0.000002, -0.000014
3.425583,0.000000,0.000000,0.000000,0.000000,0.000000,0.000000,0.000000,0.000000,0.000000,-0.000000,-0.000001,-0.000037,0.000000,0.000000,-0.000009,2.000000, 2.012453, 0.119571, -0.000832,0.000000, 0.000000, 0.000000, -0.015026, -0.000002, -0.000014
3.436558,0.000000,0.000000,0.000000,0.000000,0.000000,0.000000,0.000000,0.000000,0.000000,-0.000000,-0.000001,-0.000018,0.000000,0.000000,-0.000010,2.000000, 2.012453, 0.119571, 0.007610,0.000000, 0.000000, 0.000000, -0.015025, -0.000002, -0.000014
3.444795,0.000000,0.000000,0.000000,0.000000,0.000000,0.000000,0.000000,0.000000,0.000000,-0.000000,-0.000001,-0.000018,0.000000,0.000000,-0.000010,2.000000, 2.012453, 0.119571, 0.005046,0.000000, 0.000000, 0.000000, -0.015025, -0.000002, -0.000014
3.454513,0.000000,0.000000,0.000000,0.000000,0.000000,0.000000,0.000000,0.000000,0.000000,-0.000000,-0.000001,-0.000017,0.000000,0.000000,-0.000010,2.000000, 2.012453, 0.119571, 0.011667,0.000000, 0.000000, 0.000000, -0.015025, -0.000003, -0.000014
3.465024,0.000000,0.000000,0.000000,0.000000,0.000000,0.000000,0.000000,0.000000,0.000000,-0.000000,-0.000001,-0.000017,0.000000,0.000000,-0.000010,2.000000, 2.012453, 0.119571, 0.002382,0.000000, 0.000000, 0.000000, -0.015025, -0.000003, -0.000014
3.474642,0.000000,0.000000,0.000000,0.000000,0.000000,0.000000,0.000000,0.000000,0.000000,-0.000000,-0.000001,-0.000012,0.000000,0.000000,-0.000010,2.000000, 2.012453, 0.119571, -0.003906,0.000000, 0.000000, 0.000000, -0.015024, -0.000003, -0.000014
3.486525,0.000000,0.000000,0.000000,0.000000,0.000000,0.000000,0.000000,0.000000,0.000000,-0.000000,-0.000001,-0.000012,0.000000,0.000000,-0.000010,2.000000, 2.012453, 0.119571, 0.016501,0.000000, 0.000000, 0.000000, -0.015024, -0.000003, -0.000014
3.494779,0.000000,0.000000,0.000000,0.000000,0.000000,0.000000,0.000000,0.000000,0.000000,-0.000000,-0.000001,-0.000015,0.000000,0.000000,-0.000010,2.000000, 2.012453, 0.119571, -0.000494,0.000000, 0.000000, 0.000000, -0.015023, -0.000003, -0.000014
3.505368,0.000000,0.000000,0.000000,0.000000,0.000000,0.000000,0.000000,0.000000,0.000000,-0.000000,-0.000001,-0.000015,0.000000,0.000000,-0.000010,2.000000, 2.012453, 0.119571, 0.003210,0.000000, 0.000000, 0.000000, -0.015023, -0.000003, -0.000014
3.515143,0.000000,0.000000,0.000000,0.000000,0.000000,0.000000,0.000000,0.000000,0.000000,-0.000000,-0.000001,-0.000006,0.000000,0.000000,-0.000011,2.000000, 2.012453, 0.119572, -0.006497,0.000000, 0.000000, 0.000000, -0.015022, -0.000003, -0.000014
3.525614,0.000000,0.000000,0.000000,0.000000,0.000000,0.000000,0.000000,0.000000,0.000000,-0.000000,-0.000001,-0.000006,0.000000,0.000000,-0.000011,2.000000, 2.012453, 0.119572, 0.008003,0.000000, 0.000000, 0.000000, -0.015022, -0.000003, -0.000014
3.536589,0.000000,0.000000,0.000000,0.000000,0.000000,0.000000,0.000000,0.000000,0.000000,-0.000000,-0.000001,-0.000003,-0.000000,0.000000,-0.000011,2.000000, 2.012453, 0.119572, -0.002192,0.000000, 0.000000, 0.000000, -0.015022, -0.000003, -0.000014
3.545787,0.000000,0.000000,0.000000,0.000000,0.000000,0.000000,0.000000,0.000000,0.000000,-0.000000,-0.000001,-0.000003,-0.000000,0.000000,-0.000011,2.000000, 2.012453, 0.119572, -0.001896,0.000000, 0.000000, 0.000000, -0.015022, -0.000003, -0.000014
3.555595,0.000000,0.000000,0.000000,0.000000,0.000000,0.000000,0.000000,0.000000,0.000000,-0.000000,-0.000001,-0.000001,-0.000000,0.000000,-0.000011,2.000000, 2.012453, 0.119572, -0.002597,0.000000, 0.000000, 0.000000, -0.015021, -0.000003, -0.000014
3.569149,0.000000,0.000000,0.000000,0.000000,0.000000,0.000000,0.000000,0.000000,0.000000,-0.000000,-0.000001,-0.000001,-0.000000,0.000000,-0.000011,2.000000, 2.012453, 0.119572, -0.009732,0.000000, 0.000000, 0.000000, -0.015021, -0.000003, -0.000014
3.575684,0.000000,0.000000,0.000000,0.000000,0.000000,0.000000,0.000000,0.000000,0.000000,-0.000000,-0.000000,0.000016,-0.000000,0.000000,-0.000010,2.000000, 2.012453, 0.119572, 0.005515,0.000000, 0.000000, 0.000000, -0.015021, -0.000003, -0.000014
3.586370,0.000000,0.000000,0.000000,0.000000,0.000000,0.000000,0.000000,0.000000,0.000000,-0.000000,-0.000000,0.000016,-0.000000,0.000000,-0.000010,2.000000, 2.012453, 0.119572, -0.008411,0.000000, 0.000000, 0.000000, -0.015021, -0.000003, -0.000014
3.595942,0.000000,0.000000,0.000000,0.000000,0.000000,0.000000,0.000000,0.000000,0.000000,-0.000000,-0.000000,0.000021,-0.000000,0.000000,-0.000010,2.000000, 2.012453, 0.119572, -0.001552,0.000000, 0.000000, 0.000000, -0.015021, -0.000003, -0.000014
3.606510,0.000000,0.000000,0.000000,0.000000,0.000000,0.000000,0.000000,0.000000,0.000000,-0.000000,-0.000000,0.000021,-0.000000,0.000000,-0.000010,2.000000, 2.012453, 0.119572, 0.006647,0.000000, 0.000000, 0.000000, -0.015021, -0.000003, -0.000014
3.619223,0.000000,0.000000,0.000000,0.000000,0.000000,0.000000,0.000000,0.000000,0.000000,-0.000000,0.000000,0.000030,-0.000000,0.000000,-0.000009,2.000000, 2.012453, 0.119573, -0.001234,0.000000, 0.000000, 0.000000, -0.015020, -0.000003, -0.000014
3.626715,0.000000,0.000000,0.000000,0.000000,0.000000,0.000000,0.000000,0.000000,0.000000,-0.000000,0.000000,0.000030,-0.000000,0.000000,-0.000009,2.000000, 2.012453, 0.119573, 0.006729,0.000000, 0.000000, 0.000000, -0.015020, -0.000003, -0.000014
3.636429,0.000000,0.000000,0.000000,0.000000,0.000000,0.000000,0.000000,0.000000,0.000000,-0.000000,0.000001,0.000054,-0.000000,0.000000,-0.000008,2.000000, 2.012453, 0.119573, -0.004053,0.000000, 0.000000, 0.000000, -0.015020, -0.000003, -0.000014
3.646886,0.000000,0.000000,0.000000,0.000000,0.000000,0.000000,0.000000,0.000000,0.000000,-0.000000,0.000001,0.000054,-0.000000,0.000000,-0.000008,2.000000, 2.012453, 0.119573, 0.013780,0.000000, 0.000000, 0.000000, -0.015020, -0.000003, -0.000014
3.656646,0.000000,0.000000,0.000000,0.000000,0.000000,0.000000,0.000000,0.000000,0.000000,-0.000000,0.000001,0.000052,-0.000000,0.000000,-0.000007,2.000000, 2.012453, 0.119573, -0.003287,0.000000, 0.000000, 0.000000, -0.015020, -0.000003, -0.000014
3.668983,0.000000,0.000000,0.000000,0.000000,0.000000,0.000000,0.000000,0.000000,0.000000,-0.000000,0.000001,0.000052,-0.000000,0.000000,-0.000007,2.000000, 2.012453, 0.119573, 0.005114,0.000000, 0.000000, 0.000000, -0.015020, -0.000003, -0.000014
3.676832,0.000000,0.000000,0.000000,0.000000,0.000000,0.000000,0.000000,0.000000,0.000000,-0.000000,0.000001,0.000049,-0.000000,0.000000,-0.000006,2.000000, 2.012453, 0.119573, 0.000612,0.000000, 0.000000, 0.000000, -0.015020, -0.000003, -0.000014
3.687426,0.000000,0.000000,0.000000,0.000000,0.000000,0.000000,0.000000,0.000000,0.000000,-0.000000,0.000001,0.000049,-0.000000,0.000000,-0.000006,2.000000, 2.012453, 0.119573, 0.002076,0.000000, 0.000000, 0.000000, -0.015020, -0.000003, -0.000014
3.697085,0.000000,0.000000,0.000000,0.000000,0.000000,0.000000,0.000000,0.000000,0.000000,-0.000000,0.000001,0.000053,-0.000000,0.000000,-0.000005,2.000000, 2.012453, 0.119573, 0.006427,0.000000, 0.000000, 0.000000, -0.015021, -0.000003, -0.000014
3.707795,0.000000,0.000000,0.000000,0.000000,0.000000,0.000000,0.000000,0.000000,0.000000,-0.000000,0.000001,0.000053,-0.000000,0.000000,-0.000005,2.000000, 2.012453, 0.119573, 0.000347,0.000000, 0.000000, 0.000000, -0.015021, -0.000003, -0.000014
3.718875,0.000000,0.000000,0.000000,0.000000,0.000000,0.000000,0.000000,0.000000,0.000000,-0.000000,0.000001,0.000047,-0.000000,0.000000,-0.000004,2.000000, 2.012453, 0.119573, 0.008168,0.000000, 0.000000, 0.000000, -0.015021, -0.000003, -0.000014
3.727775,0.000000,0.000000,0.000000,0.000000,0.000000,0.000000,0.000000,0.000000,0.000000,-0.000000,0.000001,0.000047,-0.000000,0.000000,-0.000004,2.000000, 2.012453, 0.119573, 0.008046,0.000000, 0.000000, 0.000000, -0.015021, -0.000003, -0.000014
3.737534,0.000000,0.000000,0.000000,0.000000,0.000000,0.000000,0.000000,0.000000,0.000000,-0.000000,0.000001,0.000045,-0.000000,0.000000,-0.000003,2.000000, 2.012453, 0.119573, 0.010757,0.000000, 0.000000, 0.000000, -0.015021, -0.000002, -0.000014
3.748259,0.000000,0.000000,0.000000,0.000000,0.000000,0.000000,0.000000,0.000000,0.000000,-0.000000,0.000001,0.000045,-0.000000,0.000000,-0.000003,2.000000, 2.012453, 0.119573, 0.006930,0.000000, 0.000000, 0.000000, -0.015021, -0.000002, -0.000014
3.757733,0.000000,0.000000,0.000000,0.000000,0.000000,0.000000,0.000000,0.000000,0.000000,-0.000000,0.000001,0.000039,-0.000000,0.000000,-0.000003,2.000000, 2.012453, 0.119573, 0.007645,0.000000, 0.000000, 0.000000, -0.015022, -0.000002, -0.000014
3.768723,0.000000,0.000000,0.000000,0.000000,0.000000,0.000000,0.000000,0.000000,0.000000,-0.000000,0.000001,0.000039,-0.000000,0.000000,-0.000003,2.000000, 2.012453, 0.119573, -0.004311,0.000000, 0.000000, 0.000000, -0.015022, -0.000002, -0.000014
3.777925,0.000000,0.000000,0.000000,0.000000,0.000000,0.000000,0.000000,0.000000,0.000000,-0.000000,0.000000,0.000036,-0.000000,0.000000,-0.000002,2.000000, 2.012453, 0.119573, 0.002901,0.000000, 0.000000, 0.000000, -0.015023, -0.000002, -0.000014
3.788457,0.000000,0.000000,0.000000,0.000000,0.000000,0.000000,0.000000,0.000000,0.000000,-0.000000,0.000000,0.000036,-0.000000,0.000000,-0.000002,2.000000, 2.012453, 0.119573, -0.000251,0.000000, 0.000000, 0.000000, -0.015023, -0.000002, -0.000014
3.798491,0.000000,0.000000,0.000000,0.000000,0.000000,0.000000,0.000000,0.000000,0.000000,-0.000000,0.000001,0.000038,-0.000000,0.000000,-0.000001,2.000000, 2.012453, 0.119573, -0.012776,0.000000, 0.000000, 0.000000, -0.015023, -0.000002, -0.000014
3.808763,0.000000,0.000000,0.000000,0.000000,0.000000,0.000000,0.000000,0.000000,0.000000,-0.000000,0.000001,0.000038,-0.000000,0.000000,-0.000001,2.000000, 2.012453, 0.119573, 0.005340,0.000000, 0.000000, 0.000000, -0.015023, -0.000002, -0.000014
3.818770,0.000000,0.000000,0.000000,0.000000,0.000000,0.000000,0.000000,0.000000,0.000000,-0.000000,0.000000,0.000030,-0.000000,0.000000,-0.000000,2.000000, 2.012453, 0.119573, 0.004768,0.000000, 0.000000, 0.000000, -0.015024, -0.000002, -0.000014
3.828872,0.000000,0.000000,0.000000,0.000000,0.000000,0.000000,0.000000,0.000000,0.000000,-0.000000,0.000000,0.000030,-0.000000,0.000000,-0.000000,2.000000, 2.012453, 0.119573, -0.003211,0.000000, 0.000000, 0.000000, -0.015024, -0.000002, -0.000014
3.838611,0.000000,0.000000,0.000000,0.000000,0.000000,0.000000,0.000000,0.000000,0.000000,-0.000000,0.000001,0.000037,-0.000000,0.000000,0.000000,2.000000, 2.012453, 0.119573, 0.008465,0.000000, 0.000000, 0.000000, -0.015025, -0.000001, -0.000014
3.852546,0.000000,0.000000,0.000000,0.000000,0.000000,0.000000,0.000000,0.000000,0.000000,-0.000000,0.000001,0.000037,-0.000000,0.000000,0.000000,2.000000, 2.012453, 0.119573, 0.007488,0.000000, 0.000000, 0.000000, -0.015025, -0.000001, -0.000014
3.858855,0.000000,0.000000,0.000000,0.000000,0.000000,0.000000,0.000000,0.000000,0.000000,-0.000000,0.000001,0.000044,-0.000000,0.000000,0.000001,2.000000, 2.012453, 0.119573, 0.009571,0.000000, 0.000000, 0.000000, -0.015026, -0.000001, -0.000014
3.869431,0.000000,0.000000,0.000000,0.000000,0.000000,0.000000,0.000000,0.000000,0.000000,-0.000000,0.000001,0.000044,-0.000000,0.000000,0.000001,2.000000, 2.012453, 0.119573, 0.003497,0.000000, 0.000000, 0.000000, -0.015026, -0.000001, -0.000014
3.879306,0.000000,0.000000,0.000000,0.000000,0.000000,0.000000,0.000000,0.000000,0.000000,-0.000000,0.000001,0.000041,-0.000000,0.000000,0.000002,2.000000, 2.012453, 0.119573, 0.003081,0.000000, 0.000000, 0.000000, -0.015027, -0.000001, -0.000014
3.889802,0.000000,0.000000,0.000000,0.000000,0.000000,0.000000,0.000000,0.000000,0.000000,-0.000000,0.000001,0.000041,-0.000000,0.000000,0.000002,2.000000, 2.012453, 0.119573, -0.007055,0.000000, 0.000000, 0.000000, -0.015027, -0.000001, -0.000014
3.902335,0.000000,0.000000,0.000000,0.000000,0.000000,0.000000,0.000000,0.000000,0.000000,-0.000000,0.000001,0.000037,-0.000000,0.000000,0.000003,2.000000, 2.012453, 0.119573, 0.003007,0.000000, 0.000000, 0.000000, -0.015028, -0.000001, -0.000014
3.909881,0.000000,0.000000,0.000000,0.000000,0.000000,0.000000,0.000000,0.000000,0.000000,-0.000000,0.000001,0.000037,-0.000000,0.000000,0.000003,2.000000, 2.012453, 0.119573, -0.003673,0.000000, 0.000000, 0.000000, -0.015028, -0.000001, -0.000014
3.919619,0.000000,0.000000,0.000000,0.000000,0.000000,0.000000,0.000000,0.000000,0.000000,-0.000000,0.000001,0.000034,-0.000000,0.000000,0.000004,2.000000, 2.012453, 0.119573, 0.012780,0.000000, 0.000000, 0.000000, -0.015029, -0.000000, -0.000014
3.930132,0.000000,0.000000,0.000000,0.000000,0.000000,0.000000,0.000000,0.000000,0.000000,-0.000000,0.000001,0.000034,-0.000000,0.000000,0.000004,2.000000, 2.012453, 0.119573, 0.003286,0.000000, 0.000000, 0.000000, -0.015029, -0.000000, -0.000014
3.939807,0.000000,0.000000,0.000000,0.000000,0.000000,0.000000,0.000000,0.000000,0.000000,-0.000000,0.000001,0.000022,-0.000000,0.000000,0.000004,2.000000, 2.012453, 0.119573, -0.006525,0.000000, 0.000000, 0.000000, -0.015030, 0.000000, -0.000014
3.952138,0.000000,0.000000,0.000000,0.000000,0.000000,0.000000,0.000000,0.000000,0.000000,-0.000000,0.000001,0.000022,-0.000000,0.000000,0.000004,2.000000, 2.012453, 0.119573, 0.002322,0.000000, 0.000000, 0.000000, -0.015030, 0.000000, -0.000014
3.959903,0.000000,0.000000,0.000000,0.000000,0.000000,0.000000,0.000000,0.000000,0.000000,-0.000000,0.000001,0.000030,-0.000000,0.000000,0.000005,2.000000, 2.012453, 0.119573, 0.005425,0.000000, 0.000000, 0.000000, -0.015031, 0.000001, -0.000015
3.970534,0.000000,0.000000,0.000000,0.000000,0.000000,0.000000,0.000000,0.000000,0.000000,-0.000000,0.000001,0.000030,-0.000000,0.000000,0.000005,2.000000, 2.012453, 0.119573, 0.000528,0.000000, 0.000000, 0.000000, -0.015031, 0.000001, -0.000015
3.980249,0.000000,0.000000,0.000000,0.000000,0.000000,0.000000,0.000000,0.000000,0.000000,-0.000000,0.000001,0.000026,-0.000000,0.000000,0.000005,2.000000, 2.012453, 0.119573, 0.006058,0.000000, 0.000000, 0.000000, -0.015032, 0.000001, -0.000015
3.990728,0.000000,0.000000,0.000000,0.000000,0.000000,0.000000,0.000000,0.000000,0.000000,-0.000000,0.000001,0.000026,-0.000000,0.000000,0.000005,2.000000, 2.012453, 0.119573, 0.004671,0.000000, 0.000000, 0.000000, -0.015032, 0.000001, -0.000015
4.000574,0.000000,0.000000,0.000000,0.000000,0.000000,0.000000,0.000000,0.000000,0.000000,-0.000000,0.000001,0.000025,-0.000000,0.000001,0.000006,2.000000, 2.012453, 0.119573, 0.004337,0.000000, 0.000000, 0.000000, -0.015033, 0.000001, -0.000015
4.012430,0.000000,0.000000,0.000000,0.000000,0.000000,0.000000,0.000000,0.000000,0.000000,-0.000000,0.000001,0.000025,-0.000000,0.000001,0.000006,2.000000, 2.012453, 0.119573, -0.010960,0.000000, 0.000000, 0.000000, -0.015033, 0.000001, -0.000015
4.020653,0.000000,0.000000,0.000000,0.000000,0.000000,0.000000,0.000000,0.000000,0.000000,0.000000,0.000000,0.000011,-0.000000,0.000001,0.000006,2.000000, 2.012453, 0.119573, 0.001895,0.000000, 0.000000, 0.000000, -0.015034, 0.000002, -0.000015
4.021173,0.000000,0.000000,0.000000,0.000000,0.000000,0.000000,0.000000,0.000000,0.000000,0.000000,0.000000,0.000011,-0.000000,0.000001,0.000006,2.000000, 2.012453, 0.119573, -0.008799,0.000000, 0.000000, 0.000000, -0.015034, 0.000002, -0.000015
4.030790,0.000000,0.000000,0.000000,0.000000,0.000000,0.000000,0.000000,0.000000,0.000000,0.000000,0.000001,0.000011,-0.000000,0.000001,0.000006,2.000000, 2.012453, 0.119573, -0.000216,0.000000, 0.000000, 0.000000, -0.015035, 0.000002, -0.000015
4.041366,0.000000,0.000000,0.000000,0.000000,0.000000,0.000000,0.000000,0.000000,0.000000,0.000000,0.000001,0.000011,-0.000000,0.000001,0.000006,2.000000, 2.012453, 0.119573, 0.008999,0.000000, 0.000000, 0.000000, -0.015035, 0.000002, -0.000015
4.052180,0.000000,0.000000,0.000000,0.000000,0.000000,0.000000,0.000000,0.000000,0.000000,0.000000,0.000000,0.000009,-0.000000,0.000001,0.000006,2.000000, 2.012453, 0.119573, -0.001321,0.000000, 0.000000, 0.000000, -0.015036, 0.000002, -0.000015
4.061535,0.000000,0.000000,0.000000,0.000000,0.000000,0.000000,0.000000,0.000000,0.000000,0.000000,0.000000,0.000009,-0.000000,0.000001,0.000006,2.000000, 2.012453, 0.119573, 0.007457,0.000000, 0.000000, 0.000000, -0.015036, 0.000002, -0.000015
4.071218,0.000000,0.000000,0.000000,0.000000,0.000000,0.000000,0.000000,0.000000,0.000000,0.000000,0.000000,-0.000001,-0.000000,0.000001,0.000006,2.000000, 2.012453, 0.119572, 0.004257,0.000000, 0.000000, 0.000000, -0.015037, 0.000003, -0.000015
4.082276,0.000000,0.000000,0.000000,0.000000,0.000000,0.000000,0.000000,0.000000,0.000000,0.000000,0.000000,-0.000001,-0.000000,0.000001,0.000006,2.000000, 2.012453, 0.119572, 0.002444,0.000000, 0.000000, 0.000000, -0.015037, 0.000003, -0.000015
4.091878,0.000000,0.000000,0.000000,0.000000,0.000000,0.000000,0.000000,0.000000,0.000000,0.000000,0.000000,0.000000,-0.000000,0.000001,0.000006,2.000000, 2.012453, 0.119572, 0.002161,0.000000, 0.000000, 0.000000, -0.015037, 0.000003, -0.000015
4.102440,0.000000,0.000000,0.000000,0.000000,0.000000,0.000000,0.000000,0.000000,0.000000,0.000000,0.000000,0.000000,-0.000000,0.000001,0.000006,2.000000, 2.012453, 0.119572, 0.009285,0.000000, 0.000000, 0.000000, -0.015037, 0.000003, -0.000015
4.112350,0.000000,0.000000,0.000000,0.000000,0.000000,0.000000,0.000000,0.000000,0.000000,0.000000,0.000000,-0.000010,-0.000000,0.000001,0.000006,2.000000, 2.012453, 0.119572, 0.001161,0.000000, 0.000000, 0.000000, -0.015038, 0.000003, -0.000015
4.122612,0.000000,0.000000,0.000000,0.000000,0.000000,0.000000,0.000000,0.000000,0.000000,0.000000,0.000000,-0.000010,-0.000000,0.000001,0.000006,2.000000, 2.012453, 0.119572, 0.004339,0.000000, 0.000000, 0.000000, -0.015038, 0.000003, -0.000015
4.136632,0.000000,0.000000,0.000000,0.000000,0.000000,0.000000,0.000000,0.000000,0.000000,0.000000,-0.000000,-0.000020,-0.000000,0.000001,0.000005,2.000000, 2.012453, 0.119572, 0.004850,0.000000, 0.000000, 0.000000, -0.015039, 0.000003, -0.000015
4.142869,0.000000,0.000000,0.000000,0.000000,0.000000,0.000000,0.000000,0.000000,0.000000,0.000000,-0.000000,-0.000020,-0.000000,0.000001,0.000005,2.000000, 2.012453, 0.119572, 0.000894,0.000000, 0.000000, 0.000000, -0.015039, 0.000003, -0.000015
4.152575,0.000000,0.000000,0.000000,0.000000,0.000000,0.000000,0.000000,0.000000,0.000000,0.000000,-0.000000,-0.000024,-0.000000,0.000001,0.000005,2.000000, 2.012453, 0.119572, 0.007625,0.000000, 0.000000, 0.000000, -0.015040, 0.000004, -0.000015
4.162998,0.000000,0.000000,0.000000,0.000000,0.000000,0.000000,0.000000,0.000000,0.000000,0.000000,-0.000000,-0.000024,-0.000000,0.000001,0.000005,2.000000, 2.012453, 0.119572, -0.000461,0.000000, 0.000000, 0.000000, -0.015040, 0.000004, -0.000015
4.172718,0.000000,0.000000,0.000000,0.000000,0.000000,0.000000,0.000000,0.000000,0.000000,0.000000,-0.000001,-0.000036,-0.000000,0.000001,0.000004,2.000000, 2.012453, 0.119572, 0.002210,0.000000, 0.000000, 0.000000, -0.015040, 0.000004, -0.000015
4.183521,0.000000,0.000000,0.000000,0.000000,0.000000,0.000000,0.000000,0.000000,0.000000,0.000000,-0.000001,-0.000036,-0.000000,0.000001,0.000004,2.000000, 2.012453, 0.119572, 0.009738,0.000000, 0.000000, 0.000000, -0.015040, 0.000004, -0.000015
4.192899,0.000000,0.000000,0.000000,0.000000,0.000000,0.000000,0.000000,0.000000,0.000000,0.000000,-0.000000,-0.000026,-0.000000,0.000001,0.000004,2.000000, 2.012453, 0.119572, -0.002517,0.000000, 0.000000, 0.000000, -0.015041, 0.000004, -0.000015
4.203479,0.000000,0.000000,0.000000,0.000000,0.000000,0.000000,0.000000,0.000000,0.000000,0.000000,-0.000000,-0.000026,-0.000000,0.000001,0.000004,2.000000, 2.012453, 0.119572, 0.000355,0.000000, 0.000000, 0.000000, -0.015041, 0.000004, -0.000015
4.213120,0.000000,0.000000,0.000000,0.000000,0.000000,0.000000,0.000000,0.000000,0.000000,0.000000,-0.000001,-0.000044,-0.000000,0.000001,0.000003,2.000000, 2.012453, 0.119572, 0.004619,0.000000, 0.000000, 0.000000, -0.015041, 0.000004, -0.000015
4.223642,0.000000,0.000000,0.000000,0.000000,0.000000,0.000000,0.000000,0.000000,0.000000,0.000000,-0.000001,-0.000044,-0.000000,0.000001,0.000003,2.000000, 2.012453, 0.119572, 0.005747,0.000000, 0.000000, 0.000000, -0.015041, 0.000004, -0.000015
4.236384,0.000000,0.000000,0.000000,0.000000,0.000000,0.000000,0.000000,0.000000,0.000000,0.000000,-0.000001,-0.000042,-0.000000,0.000000,0.000002,2.000000, 2.012453, 0.119572, -0.006315,0.000000, 0.000000, 0.000000, -0.015041, 0.000004, -0.000015
4.243825,0.000000,0.000000,0.000000,0.000000,0.000000,0.000000,0.000000,0.000000,0.000000,0.000000,-0.000001,-0.000042,-0.000000,0.000000,0.000002,2.000000, 2.012453, 0.119572, 0.007533,0.000000, 0.000000, 0.000000, -0.015041, 0.000004, -0.000015
4.253610,0.000000,0.000000,0.000000,0.000000,0.000000,0.000000,0.000000,0.000000,0.000000,0.000000,-0.000001,-0.000056,-0.000000,0.000000,0.000001,2.000000, 2.012453, 0.119572, -0.002943,0.000000, 0.000000, 0.000000, -0.015041, 0.000005, -0.000015
4.264018,0.000000,0.000000,0.000000,0.000000,0.000000,0.000000,0.000000,0.000000,0.000000,0.000000,-0.000001,-0.000056,-0.000000,0.000000,0.000001,2.000000, 2.012453, 0.119572, -0.010235,0.000000, 0.000000, 0.000000, -0.015041, 0.000005, -0.000015
4.273809,0.000000,0.000000,0.000000,0.000000,0.000000,0.000000,0.000000,0.000000,0.000000,0.000000,-0.000001,-0.000050,-0.000000,0.000000,-0.000000,2.000000, 2.012453, 0.119572, -0.001443,0.000000, 0.000000, 0.000000, -0.015042, 0.000005, -0.000015
4.286281,0.000000,0.000000,0.000000,0.000000,0.000000,0.000000,0.000000,0.000000,0.000000,0.000000,-0.000001,-0.000050,-0.000000,0.000000,-0.000000,2.000000, 2.012453, 0.119572, 0.004257,0.000000, 0.000000, 0.000000, -0.015042, 0.000005, -0.000015
4.294008,0.000000,0.000000,0.000000,0.000000,0.000000,0.000000,0.000000,0.000000,0.000000,0.000000,-0.000001,-0.000056,-0.000000,0.000000,-0.000001,2.000000, 2.012453, 0.119572, 0.002790,0.000000, 0.000000, 0.000000, -0.015042, 0.000005, -0.000015
4.304506,0.000000,0.000000,0.000000,0.000000,0.000000,0.000000,0.000000,0.000000,0.000000,0.000000,-0.000001,-0.000056,-0.000000,0.000000,-0.000001,2.000000, 2.012453, 0.119572, 0.008977,0.000000, 0.000000, 0.000000, -0.015042, 0.000005, -0.000015
4.314339,0.000000,0.000000,0.000000,0.000000,0.000000,0.000000,0.000000,0.000000,0.000000,0.000000,-0.000001,-0.000056,-0.000000,0.000000,-0.000002,2.000000, 2.012453, 0.119572, 0.003067,0.000000, 0.000000, 0.000000, -0.015041, 0.000005, -0.000015
4.325391,0.000000,0.000000,0.000000,0.000000,0.000000,0.000000,0.000000,0.000000,0.000000,0.000000,-0.000001,-0.000056,-0.000000,0.000000,-0.000002,2.000000, 2.012453, 0.119572, 0.002080,0.000000, 0.000000, 0.000000, -0.015041, 0.000005, -0.000015
4.334452,0.000000,0.000000,0.000000,0.000000,0.000000,0.000000,0.000000,0.000000,0.000000,0.000000,-0.000001,-0.000054,-0.000000,0.000000,-0.000003,2.000000, 2.012453, 0.119572, 0.006369,0.000000, 0.000000, 0.000000, -0.015041, 0.000005, -0.000015
4.349974,0.000000,0.000000,0.000000,0.000000,0.000000,0.000000,0.000000,0.000000,0.000000,0.000000,-0.000001,-0.000054,-0.000000,0.000000,-0.000003,2.000000, 2.012453, 0.119572, 0.005663,0.000000, 0.000000, 0.000000, -0.015041, 0.000005, -0.000015
4.357058,0.000000,0.000000,0.000000,0.000000,0.000000,0.000000,0.000000,0.000000,0.000000,0.000000,-0.000001,-0.000050,-0.000000,0.000000,-0.000005,2.000000, 2.012453, 0.119572, -0.000673,0.000000, 0.000000, 0.000000, -0.015041, 0.000005, -0.000015
4.365433,0.000000,0.000000,0.000000,0.000000,0.000000,0.000000,0.000000,0.000000,0.000000,0.000000,-0.000001,-0.000050,-0.000000,0.000000,-0.000005,2.000000, 2.012453, 0.119572, 0.003123,0.000000, 0.000000, 0.000000, -0.015041, 0.000005, -0.000015
4.375016,0.000000,0.000000,0.000000,0.000000,0.000000,0.000000,0.000000,0.000000,0.000000,0.000000,-0.000001,-0.000053,-0.000000,0.000000,-0.000006,2.000000, 2.012453, 0.119572, -0.003103,0.000000, 0.000000, 0.000000, -0.015040, 0.000005, -0.000015
4.385388,0.000000,0.000000,0.000000,0.000000,0.000000,0.000000,0.000000,0.000000,0.000000,0.000000,-0.000001,-0.000053,-0.000000,0.000000,-0.000006,2.000000, 2.012453, 0.119572, 0.004500,0.000000, 0.000000, 0.000000, -0.015040, 0.000005, -0.000015
4.396809,0.000000,0.000000,0.000000,0.000000,0.000000,0.000000,0.000000,0.000000,0.000000,0.000000,-0.000001,-0.000041,-0.000000,0.000000,-0.000006,2.000000, 2.012453, 0.119572, 0.005872,0.000000, 0.000000, 0.000000, -0.015040, 0.000005, -0.000015
4.405695,0.000000,0.000000,0.000000,0.000000,0.000000,0.000000,0.000000,0.000000,0.000000,0.000000,-0.000001,-0.000041,-0.000000,0.000000,-0.000006,2.000000, 2.012453, 0.119572, 0.002221,0.000000, 0.000000, 0.000000, -0.015040, 0.000005, -0.000015
4.415316,0.000000,0.000000,0.000000,0.000000,0.000000,0.000000,0.000000,0.000000,0.000000,0.000000,-0.000001,-0.000052,0.000000,0.000000,-0.000007,2.000000, 2.012453, 0.119572, -0.008442,0.000000, 0.000000, 0.000000, -0.015039, 0.000005, -0.000015
4.425804,0.000000,0.000000,0.000000,0.000000,0.000000,0.000000,0.000000,0.000000,0.000000,0.000000,-0.000001,-0.000052,0.000000,0.000000,-0.000007,2.000000, 2.012453, 0.119572, 0.000842,0.000000, 0.000000, 0.000000, -0.015039, 0.000005, -0.000015
4.435368,0.000000,0.000000,0.000000,0.000000,0.000000,0.000000,0.000000,0.000000,0.000000,0.000000,-0.000001,-0.000043,0.000000,0.000000,-0.000008,2.000000, 2.012453, 0.119572, 0.004694,0.000000, 0.000000, 0.000000, -0.015038, 0.000005, -0.000015
4.445939,0.000000,0.000000,0.000000,0.000000,0.000000,0.000000,0.000000,0.000000,0.000000,0.000000,-0.000001,-0.000043,0.000000,0.000000,-0.000008,2.000000, 2.012453, 0.119572, 0.007102,0.000000, 0.000000, 0.000000, -0.015038, 0.000005, -0.000015
4.455600,0.000000,0.000000,0.000000,0.000000,0.000000,0.000000,0.000000,0.000000,0.000000,0.000000,-0.000000,-0.000023,0.000000,0.000000,-0.000009,2.000000, 2.012453, 0.119573, 0.006930,0.000000, 0.000000, 0.000000, -0.015038, 0.000005, -0.000015
4.466096,0.000000,0.000000,0.000000,0.000000,0.000000,0.000000,0.000000,0.000000,0.000000,0.000000,-0.000000,-0.000023,0.000000,0.000000,-0.000009,2.000000, 2.012453, 0.119573, 0.005248,0.000000, 0.000000, 0.000000, -0.015038, 0.000005, -0.000015
4.478959,0.000000,0.000000,0.000000,0.000000,0.000000,0.000000,0.000000,0.000000,0.000000,0.000000,0.000000,-0.000010,0.000000,0.000000,-0.000009,2.000000, 2.012453, 0.119573, 0.004708,0.000000, 0.000000, 0.000000, -0.015037, 0.000004, -0.000015
4.486358,0.000000,0.000000,0.000000,0.000000,0.000000,0.000000,0.000000,0.000000,0.000000,0.000000,0.000000,-0.000010,0.000000,0.000000,-0.000009,2.000000, 2.012453, 0.119573, -0.004109,0.000000, 0.000000, 0.000000, -0.015037, 0.000004, -0.000015
4.495909,0.000000,0.000000,0.000000,0.000000,0.000000,0.000000,0.000000,0.000000,0.000000,0.000000,0.000000,-0.000005,0.000000,0.000000,-0.000009,2.000000, 2.012453, 0.119573, 0.002428,0.000000, 0.000000, 0.000000, -0.015036, 0.000004, -0.000015
4.506548,0.000000,0.000000,0.000000,0.000000,0.000000,0.000000,0.000000,0.000000,0.000000,0.000000,0.000000,-0.000005,0.000000,0.000000,-0.000009,2.000000, 2.012453, 0.119573, 0.009419,0.000000, 0.000000, 0.000000, -0.015036, 0.000004, -0.000015
4.516232,0.000000,0.000000,0.000000,0.000000,0.000000,0.000000,0.000000,0.000000,0.000000,0.000000,0.000001,0.000009,0.000000,0.000000,-0.000009,2.000000, 2.012453, 0.119573, 0.007768,0.000000, 0.000000, 0.000000, -0.015035, 0.000004, -0.000015
4.528816,0.000000,0.000000,0.000000,0.000000,0.000000,0.000000,0.000000,0.000000,0.000000,0.000000,0.000001,0.000009,0.000000,0.000000,-0.000009,2.000000, 2.012453, 0.119573, 0.000806,0.000000, 0.000000, 0.000000, -0.015035, 0.000004, -0.000015
4.537001,0.000000,0.000000,0.000000,0.000000,0.000000,0.000000,0.000000,0.000000,0.000000,0.000000,0.000000,0.000009,0.000000,0.000000,-0.000009,2.000000, 2.012453, 0.119573, 0.015210,0.000000, 0.000000, 0.000000, -0.015034, 0.000004, -0.000015
4.547505,0.000000,0.000000,0.000000,0.000000,0.000000,0.000000,0.000000,0.000000,0.000000,0.000000,0.000000,0.000009,0.000000,0.000000,-0.000009,2.000000, 2.012453, 0.119573, -0.000629,0.000000, 0.000000, 0.000000, -0.015034, 0.000004, -0.000015
4.556602,0.000000,0.000000,0.000000,0.000000,0.000000,0.000000,0.000000,0.000000,0.000000,0.000000,0.000001,0.000013,0.000000,0.000000,-0.000008,2.000000, 2.012453, 0.119573, 0.004842,0.000000, 0.000000, 0.000000, -0.015033, 0.000003, -0.000015
4.568866,0.000000,0.000000,0.000000,0.000000,0.000000,0.000000,0.000000,0.000000,0.000000,0.000000,0.000001,0.000013,0.000000,0.000000,-0.000008,2.000000, 2.012453, 0.119573, 0.000827,0.000000, 0.000000, 0.000000, -0.015033, 0.000003, -0.000015
4.576851,0.000000,0.000000,0.000000,0.000000,0.000000,0.000000,0.000000,0.000000,0.000000,0.000000,0.000001,0.000025,0.000000,0.000000,-0.000008,2.000000, 2.012453, 0.119574, 0.006761,0.000000, 0.000000, 0.000000, -0.015032, 0.000003, -0.000015
4.587343,0.000000,0.000000,0.000000,0.000000,0.000000,0.000000,0.000000,0.000000,0.000000,0.000000,0.000001,0.000025,0.000000,0.000000,-0.000008,2.000000, 2.012453, 0.119574, -0.004479,0.000000, 0.000000, 0.000000, -0.015032, 0.000003, -0.000015
4.597127,0.000000,0.000000,0.000000,0.000000,0.000000,0.000000,0.000000,0.000000,0.000000,0.000000,0.000001,0.000019,0.000000,0.000000,-0.000008,2.000000, 2.012453, 0.119574, 0.000714,0.000000, 0.000000, 0.000000, -0.015031, 0.000003, -0.000015
4.607685,0.000000,0.000000,0.000000,0.000000,0.000000,0.000000,0.000000,0.000000,0.000000,0.000000,0.000001,0.000019,0.000000,0.000000,-0.000008,2.000000, 2.012453, 0.119574, -0.005127,0.000000, 0.000000, 0.000000, -0.015031, 0.000003, -0.000015
4.617503,0.000000,0.000000,0.000000,0.000000,0.000000,0.000000,0.000000,0.000000,0.000000,0.000000,0.000001,0.000024,0.000000,0.000000,-0.000007,2.000000, 2.012453, 0.119574, 0.008276,0.000000, 0.000000, 0.000000, -0.015030, 0.000002, -0.000015
4.630148,0.000000,0.000000,0.000000,0.000000,0.000000,0.000000,0.000000,0.000000,0.000000,0.000000,0.000001,0.000024,0.000000,0.000000,-0.000007,2.000000, 2.012453, 0.119574, -0.002342,0.000000, 0.000000, 0.000000, -0.015030, 0.000002, -0.000015
4.643574,0.000000,0.000000,0.000000,0.000000,0.000000,0.000000,0.000000,0.000000,0.000000,0.000000,0.000001,0.000030,0.000000,0.000000,-0.000006,2.000000, 2.012453, 0.119574, 0.002532,0.000000, 0.000000, 0.000000, -0.015029, 0.000002, -0.000015
4.654543,0.000000,0.000000,0.000000,0.000000,0.000000,0.000000,0.000000,0.000000,0.000000,0.000000,0.000001,0.000030,0.000000,0.000000,-0.000006,2.000000, 2.012453, 0.119574, 0.000195,0.000000, 0.000000, 0.000000, -0.015029, 0.000002, -0.000015
4.668796,0.000000,0.000000,0.000000,0.000000,0.000000,0.000000,0.000000,0.000000,0.000000,0.000000,0.000001,0.000027,0.000000,0.000000,-0.000006,2.000000, 2.012453, 0.119574, 0.002164,0.000000, 0.000000, 0.000000, -0.015028, 0.000001, -0.000015
4.671782,0.000000,0.000000,0.000000,0.000000,0.000000,0.000000,0.000000,0.000000,0.000000,0.000000,0.000001,0.000027,0.000000,0.000000,-0.000006,2.000000, 2.012453, 0.119574, 0.004392,0.000000, 0.000000, 0.000000, -0.015028, 0.000001, -0.000015
4.680974,0.000000,0.000000,0.000000,0.000000,0.000000,0.000000,0.000000,0.000000,0.000000,0.000000,0.000001,0.000064,0.000000,0.000000,-0.000005,2.000000, 2.012453, 0.119574, -0.001956,0.000000, 0.000000, 0.000000, -0.015027, 0.000001, -0.000014
6.019310,0.000000,0.000000,0.000000,0.000000,0.000000,0.000000,0.000000,0.000000,0.000000,0.000000,0.000005,0.000184,-0.000000,0.000001,0.000005,2.000000, 2.012452, 0.119577, 0.000320,0.000000, 0.000000, 0.000000, -0.015026, 0.000004, -0.000015
6.019391,0.000000,0.000000,0.000000,0.000000,0.000000,0.000000,0.000000,0.000000,0.000000,0.000000,0.000005,0.000184,-0.000000,0.000001,0.000005,2.000000, 2.012452, 0.119577, -0.000832,0.000000, 0.000000, 0.000000, -0.015026, 0.000004, -0.000015
6.029777,0.000000,0.000000,0.000000,0.000000,0.000000,0.000000,0.000000,0.000000,0.000000,0.000000,0.000005,0.000184,-0.000000,0.000001,0.000005,2.000000, 2.012452, 0.119577, -0.000972,0.000000, 0.000000, 0.000000, -0.015026, 0.000004, -0.000015
6.039456,0.000000,0.000000,0.000000,0.000000,0.000000,0.000000,0.000000,0.000000,0.000000,0.000000,0.000004,0.000153,-0.000000,0.000001,0.000008,2.000000, 2.012452, 0.119577, 0.006484,0.000000, 0.000000, 0.000000, -0.015026, 0.000004, -0.000014
6.052442,0.000000,0.000000,0.000000,0.000000,0.000000,0.000000,0.000000,0.000000,0.000000,0.000000,0.000004,0.000153,-0.000000,0.000001,0.000008,2.000000, 2.012452, 0.119577, 0.003425,0.000000, 0.000000, 0.000000, -0.015026, 0.000004, -0.000014
6.059754,0.000000,0.000000,0.000000,0.000000,0.000000,0.000000,0.000000,0.000000,0.000000,0.000000,0.000004,0.000152,0.000000,0.000001,0.000011,2.000000, 2.012452, 0.119577, 0.011511,0.000000, 0.000000, 0.000000, -0.015025, 0.000004, -0.000014
6.070275,0.000000,0.000000,0.000000,0.000000,0.000000,0.000000,0.000000,0.000000,0.000000,0.000000,0.000004,0.000152,0.000000,0.000001,0.000011,2.000000, 2.012452, 0.119577, -0.004380,0.000000, 0.000000, 0.000000, -0.015025, 0.000004, -0.000014
6.080003,0.000000,0.000000,0.000000,0.000000,0.000000,0.000000,0.000000,0.000000,0.000000,0.000000,0.000004,0.000136,0.000000,0.000001,0.000014,2.000000, 2.012452, 0.119577, 0.002176,0.000000, 0.000000, 0.000000, -0.015025, 0.000004, -0.000014
6.090524,0.000000,0.000000,0.000000,0.000000,0.000000,0.000000,0.000000,0.000000,0.000000,0.000000,0.000004,0.000136,0.000000,0.000001,0.000014,2.000000, 2.012452, 0.119577, 0.002196,0.000000, 0.000000, 0.000000, -0.015025, 0.000004, -0.000014
6.100266,0.000000,0.000000,0.000000,0.000000,0.000000,0.000000,0.000000,0.000000,0.000000,0.000000,0.000002,0.000068,0.000000,0.000001,0.000015,2.000000, 2.012452, 0.119576, 0.008549,0.000000, 0.000000, 0.000000, -0.015024, 0.000004, -0.000014
6.112375,0.000000,0.000000,0.000000,0.000000,0.000000,0.000000,0.000000,0.000000,0.000000,0.000000,0.000002,0.000068,0.000000,0.000001,0.000015,2.000000, 2.012452, 0.119576, 0.005379,0.000000, 0.000000, 0.000000, -0.015024, 0.000004, -0.000014
6.120555,0.000000,0.000000,0.000000,0.000000,0.000000,0.000000,0.000000,0.000000,0.000000,0.000000,0.000001,0.000059,0.000000,0.000001,0.000017,2.000000, 2.012452, 0.119576, 0.001216,0.000000, 0.000000, 0.000000, -0.015024, 0.000003, -0.000014
6.131216,0.000000,0.000000,0.000000,0.000000,0.000000,0.000000,0.000000,0.000000,0.000000,0.000000,0.000001,0.000059,0.000000,0.000001,0.000017,2.000000, 2.012452, 0.119576, 0.004172,0.000000, 0.000000, 0.000000, -0.015024, 0.000003, -0.000014
6.131599,0.000000,0.000000,0.000000,0.000000,0.000000,0.000000,0.000000,0.000000,0.000000,0.000000,0.000003,0.000130,0.000000,0.000001,0.000018,2.000000, 2.012452, 0.119576, 0.004055,0.000000, 0.000000, 0.000000, -0.015024, 0.000003, -0.000014
6.141216,0.000000,0.000000,0.000000,0.000000,0.000000,0.000000,0.000000,0.000000,0.000000,0.000000,0.000003,0.000130,0.000000,0.000001,0.000018,2.000000, 2.012452, 0.119576, 0.003863,0.000000, 0.000000, 0.000000, -0.015024, 0.000003, -0.000014
6.150912,0.000000,0.000000,0.000000,0.000000,0.000000,0.000000,0.000000,0.000000,0.000000,0.000000,0.000002,0.000077,0.000000,0.000001,0.000020,2.000000, 2.012452, 0.119575, 0.000507,0.000000, 0.000000, 0.000000, -0.015024, 0.000003, -0.000014
