timestamp,acc_x,acc_y,acc_z,vel_x,vel_y,vel_z,pos_x,pos_y,pos_z,correct_acc_x,correct_acc_y,correct_acc_z, correct_vel_x,correct_vel_y,correct_vel_z, correct_pos_x,correct_pos_y,correct_pos_z, depth_by_pressure,orientation_x, orientation_y, orientation_z, truth_orientation_x, truth_orientation_y, truth_orientation_z,gyro_x, gyro_y, gyro_z
0.117995,0.000000,0.000000,0.000000,0.000000,0.000000,0.000000,-0.000000,0.000000,0.002294,0.000000,0.000000,0.000000,0.000000,0.000000,0.000000,0.000000, 0.000000, 0.000000, -0.002548,0.000000, 0.000000, 0.000000, 0.000000, 0.000000, 0.000000, 0.000000, 0.000000, 0.000000
0.132708,0.000000,0.000000,0.000000,0.000000,0.000000,0.000000,-0.000000,0.000000,-0.005924,0.000000,0.000000,0.000000,0.000000,0.000000,0.000000,0.000000, 0.000000, 0.000000, 0.006837,0.000000, 0.000000, 0.000000, 0.000000, 0.000000, 0.000000, 0.000000, 0.000000, 0.000000
0.571983,0.000000,0.000000,0.000000,0.000000,0.000000,0.000000,-0.000000,0.000000,-0.001444,-0.000000,0.000000,0.000000,0.000304,-0.000009,-0.008572,2.701763, 0.955806, 0.118506, 0.000946,0.000000, 0.000000, 0.000000, 0.775148, 0.631615, 0.011718, 0.000000, 0.000000, 0.000000
0.696493,0.000000,0.000000,0.000000,0.000000,0.000000,0.000000,-0.000000,0.000000,-0.005352,-0.010040,0.002530,0.547320,0.000317,-0.000016,-0.008951,2.701768, 0.955797, 0.118859, 0.005787,0.000000, 0.000000, 0.000000, 0.775153, 0.631617, 0.011331, 0.000000, 0.000000, 0.000000
0.732334,0.000000,0.000000,0.000000,0.000000,0.000000,0.000000,-0.000000,0.000000,0.001791,-0.008256,0.002210,0.448123,0.000319,-0.000018,-0.008993,2.701771, 0.955793, 0.119039, -0.002584,0.000000, 0.000000, 0.000000, 0.775155, 0.631618, 0.011170, 0.000000, 0.000000, 0.000000
0.838916,0.000000,0.000000,0.000000,0.000000,0.000000,0.000000,-0.000000,0.000000,0.003697,-0.027409,0.008069,1.474487,0.000315,-0.000019,-0.008785,2.701776, 0.955784, 0.119394, -0.003909,0.000000, 0.000000, 0.000000, 0.775158, 0.631619, 0.010914, 0.000000, 0.000000, 0.000000
0.854325,0.000000,0.000000,0.000000,0.000000,0.000000,0.000000,-0.000000,0.000000,0.003887,-0.027409,0.008069,1.474487,0.000315,-0.000019,-0.008785,2.701776, 0.955784, 0.119394, -0.003909,0.000000, 0.000000, 0.000000, 0.775158, 0.631619, 0.010914, 0.000000, 0.000000, 0.000000
0.869736,0.000000,0.000000,0.000000,0.000000,0.000000,0.000000,-0.000000,0.000000,0.000030,-0.031769,0.010014,1.691292,0.000303,-0.000016,-0.008229,2.701781, 0.955776, 0.119733, 0.000398,0.000000, 0.000000, 0.000000, 0.775160, 0.631619, 0.010743, 0.000000, 0.000000, 0.000000
0.916274,0.000000,0.000000,0.000000,0.000000,0.000000,0.000000,-0.000000,0.000000,-0.000985,-0.007472,0.002419,0.395473,0.000293,-0.000013,-0.007835,2.701784, 0.955772, 0.119891, 0.001097,0.000000, 0.000000, 0.000000, 0.775160, 0.631619, 0.010687, 0.000000, 0.000000, 0.000000
0.933960,0.000000,0.000000,0.000000,0.000000,0.000000,0.000000,-0.000000,0.000000,-0.001310,-0.018687,0.006296,0.977114,0.000268,-0.000005,-0.006844,2.701789, 0.955765, 0.120181, 0.001346,0.000000, 0.000000, 0.000000, 0.775161, 0.631618, 0.010628, 0.000000, 0.000000, 0.000000
0.959950,0.000000,0.000000,0.000000,0.000000,0.000000,0.000000,-0.000000,0.000000,-0.003163,-0.009501,0.003243,0.493626,0.000253,0.000001,-0.006263,2.701791, 0.955762, 0.120309, 0.003369,0.000000, 0.000000, 0.000000, 0.775161, 0.631618, 0.010623, 0.000000, 0.000000, 0.000000
0.979569,0.000000,0.000000,0.000000,0.000000,0.000000,0.000000,-0.000000,0.000000,-0.001061,1.182043,-0.839562,-36.954608,0.000054,0.000084,0.000710,2.701810, 0.955739, 0.120836, 0.000828,0.000000, 0.000000, 0.000000, 0.775152, 0.631610, 0.011241, 0.000000, 0.000000, 0.000000
0.996377,0.000000,0.000000,0.000000,0.000000,0.000000,0.000000,-0.000000,0.000000,0.000601,0.005852,-0.003951,-0.179027,-0.000039,0.000041,0.001168,2.701817, 0.955739, 0.118866, -0.000785,0.000000, 0.000000, 0.000000, 0.775130, 0.631610, 0.012577, 0.000000, 0.000000, 0.000000
1.013691,0.000000,0.000000,0.000000,0.000000,0.000000,0.000000,-0.000000,0.000000,0.002140,0.006011,-0.005382,-0.127746,-0.000019,0.000024,0.000339,2.701817, 0.955739, 0.118840, -0.002311,0.000000, 0.000000, 0.000000, 0.775131, 0.631612, 0.012517, 0.000000, 0.000000, 0.000000
1.032833,0.000000,0.000000,0.000000,0.000000,0.000000,0.000000,-0.000000,0.000000,0.000938,0.001889,-0.002245,-0.015906,-0.000010,0.000016,-0.000065,2.701817, 0.955739, 0.118839, -0.000804,0.000000, 0.000000, 0.000000, 0.775131, 0.631613, 0.012483, 0.000000, 0.000000, 0.000000
1.051480,0.000000,0.000000,0.000000,0.000000,0.000000,0.000000,-0.000000,0.000000,0.000394,0.000723,-0.001580,0.025437,-0.000001,0.000009,-0.000448,2.701816, 0.955738, 0.118846, -0.000334,0.000000, 0.000000, 0.000000, 0.775132, 0.631613, 0.012449, 0.000000, 0.000000, 0.000000
1.066946,0.000000,0.000000,0.000000,0.000000,0.000000,0.000000,-0.000000,0.000000,0.003596,-0.000121,-0.001238,0.061920,0.000008,0.000002,-0.000816,2.701816, 0.955738, 0.118861, -0.003951,0.000000, 0.000000, 0.000000, 0.775132, 0.631614, 0.012413, 0.000000, 0.000000, 0.000000
1.082019,0.000000,0.000000,0.000000,0.000000,0.000000,0.000000,-0.000000,0.000000,0.004235,-0.000121,-0.001238,0.061920,0.000008,0.000002,-0.000816,2.701816, 0.955738, 0.118861, -0.004306,0.000000, 0.000000, 0.000000, 0.775132, 0.631614, 0.012413, 0.000000, 0.000000, 0.000000
1.096964,0.000000,0.000000,0.000000,0.000000,0.000000,0.000000,-0.000000,0.000000,0.005029,-0.000948,-0.000958,0.099781,0.000016,-0.000005,-0.001165,2.701816, 0.955737, 0.118882, -0.005118,0.000000, 0.000000, 0.000000, 0.775133, 0.631615, 0.012377, 0.000000, 0.000000, 0.000000
1.111511,0.000000,0.000000,0.000000,0.000000,0.000000,0.000000,-0.000000,0.000000,0.000041,-0.001698,-0.000644,0.132273,0.000024,-0.000011,-0.001485,2.701816, 0.955737, 0.118910, 0.000513,0.000000, 0.000000, 0.000000, 0.775133, 0.631616, 0.012341, 0.000000, 0.000000, 0.000000
1.126672,0.000000,0.000000,0.000000,0.000000,0.000000,0.000000,-0.000000,0.000000,-0.006597,-0.001698,-0.000644,0.132273,0.000024,-0.000011,-0.001485,2.701816, 0.955737, 0.118910, 0.007335,0.000000, 0.000000, 0.000000, 0.775133, 0.631616, 0.012341, 0.000000, 0.000000, 0.000000
1.141359,0.000000,0.000000,0.000000,0.000000,0.000000,0.000000,-0.000000,0.000000,0.002057,-0.002071,-0.000316,0.141192,0.000031,-0.000016,-0.001776,2.701816, 0.955736, 0.118944, -0.003018,0.000000, 0.000000, 0.000000, 0.775134, 0.631616, 0.012305, 0.000000, 0.000000, 0.000000
1.155972,0.000000,0.000000,0.000000,0.000000,0.000000,0.000000,-0.000000,0.000000,-0.007648,-0.003461,-0.000124,0.218779,0.000037,-0.000021,-0.002039,2.701815, 0.955735, 0.118984, 0.008726,0.000000, 0.000000, 0.000000, 0.775134, 0.631617, 0.012269, 0.000000, 0.000000, 0.000000
1.170951,0.000000,0.000000,0.000000,0.000000,0.000000,0.000000,-0.000000,0.000000,0.003921,-0.003262,0.000117,0.196574,0.000043,-0.000025,-0.002271,2.701815, 0.955734, 0.119028, -0.005207,0.000000, 0.000000, 0.000000, 0.775135, 0.631617, 0.012234, 0.000000, 0.000000, 0.000000
1.216205,0.000000,0.000000,0.000000,0.000000,0.000000,0.000000,-0.000000,0.000000,-0.008017,-0.033100,0.003914,1.886274,0.000053,-0.000032,-0.002644,2.701815, 0.955733, 0.119129, 0.009344,0.000000, 0.000000, 0.000000, 0.775136, 0.631618, 0.012169, 0.000000, 0.000000, 0.000000
1.230781,0.000000,0.000000,0.000000,0.000000,0.000000,0.000000,-0.000000,0.000000,0.001672,-0.006337,0.000914,0.355175,0.000056,-0.000034,-0.002778,2.701815, 0.955732, 0.119184, -0.002749,0.000000, 0.000000, 0.000000, 0.775136, 0.631619, 0.012138, 0.000000, 0.000000, 0.000000
1.245783,0.000000,0.000000,0.000000,0.000000,0.000000,0.000000,-0.000000,0.000000,-0.003531,-0.006337,0.000914,0.355175,0.000056,-0.000034,-0.002778,2.701815, 0.955732, 0.119184, 0.004110,0.000000, 0.000000, 0.000000, 0.775136, 0.631619, 0.012138, 0.000000, 0.000000, 0.000000
1.260343,0.000000,0.000000,0.000000,0.000000,0.000000,0.000000,-0.000000,0.000000,0.000186,-0.004771,0.000782,0.264302,0.000059,-0.000036,-0.002876,2.701815, 0.955731, 0.119241, -0.000599,0.000000, 0.000000, 0.000000, 0.775136, 0.631619, 0.012110, 0.000000, 0.000000, 0.000000
1.295323,0.000000,0.000000,0.000000,0.000000,0.000000,0.000000,-0.000000,0.000000,-0.005988,-0.041250,0.007869,2.249046,0.000062,-0.000038,-0.002972,2.701815, 0.955730, 0.119358, 0.006674,0.000000, 0.000000, 0.000000, 0.775137, 0.631620, 0.012059, 0.000000, 0.000000, 0.000000
1.310045,0.000000,0.000000,0.000000,0.000000,0.000000,0.000000,-0.000000,0.000000,-0.007690,-0.006943,0.001393,0.376483,0.000063,-0.000038,-0.002972,2.701815, 0.955729, 0.119418, 0.007879,0.000000, 0.000000, 0.000000, 0.775137, 0.631620, 0.012038, 0.000000, 0.000000, 0.000000
1.325924,0.000000,0.000000,0.000000,0.000000,0.000000,0.000000,-0.000000,0.000000,-0.003983,-0.006943,0.001393,0.376483,0.000063,-0.000038,-0.002972,2.701815, 0.955729, 0.119418, 0.003571,0.000000, 0.000000, 0.000000, 0.775137, 0.631620, 0.012038, 0.000000, 0.000000, 0.000000
1.340563,0.000000,0.000000,0.000000,0.000000,0.000000,0.000000,-0.000000,0.000000,0.003996,-0.004945,0.001033,0.267050,0.000063,-0.000037,-0.002940,2.701815, 0.955728, 0.119477, -0.004883,0.000000, 0.000000, 0.000000, 0.775138, 0.631620, 0.012019, 0.000000, 0.000000, 0.000000
1.381739,0.000000,0.000000,0.000000,0.000000,0.000000,0.000000,-0.000000,0.000000,0.002429,-0.015990,0.003539,0.858868,0.000061,-0.000035,-0.002786,2.701815, 0.955726, 0.119591, -0.002255,0.000000, 0.000000, 0.000000, 0.775138, 0.631620, 0.011991, 0.000000, 0.000000, 0.000000
1.399969,0.000000,0.000000,0.000000,0.000000,0.000000,0.000000,-0.000000,0.000000,-0.001017,-0.008108,0.001832,0.434919,0.000059,-0.000033,-0.002669,2.701815, 0.955726, 0.119645, 0.001399,0.000000, 0.000000, 0.000000, 0.775138, 0.631620, 0.011982, 0.000000, 0.000000, 0.000000
1.416421,0.000000,0.000000,0.000000,0.000000,0.000000,0.000000,-0.000000,0.000000,0.003097,-0.004759,0.001091,0.255194,0.000056,-0.000031,-0.002527,2.701815, 0.955725, 0.119696, -0.003554,0.000000, 0.000000, 0.000000, 0.775138, 0.631620, 0.011976, 0.000000, 0.000000, 0.000000
1.432091,0.000000,0.000000,0.000000,0.000000,0.000000,0.000000,-0.000000,0.000000,0.002288,-0.004177,0.000968,0.224187,0.000053,-0.000028,-0.002365,2.701815, 0.955724, 0.119744, -0.002199,0.000000, 0.000000, 0.000000, 0.775138, 0.631620, 0.011972, 0.000000, 0.000000, 0.000000
1.447649,0.000000,0.000000,0.000000,0.000000,0.000000,0.000000,-0.000000,0.000000,-0.006310,-0.004177,0.000968,0.224187,0.000053,-0.000028,-0.002365,2.701815, 0.955724, 0.119744, 0.007265,0.000000, 0.000000, 0.000000, 0.775138, 0.631620, 0.011972, 0.000000, 0.000000, 0.000000
1.463172,0.000000,0.000000,0.000000,0.000000,0.000000,0.000000,-0.000000,0.000000,-0.002874,-0.004230,0.000986,0.227544,0.000050,-0.000025,-0.002183,2.701815, 0.955724, 0.119789, 0.002492,0.000000, 0.000000, 0.000000, 0.775138, 0.631620, 0.011971, 0.000000, 0.000000, 0.000000
1.498698,0.000000,0.000000,0.000000,0.000000,0.000000,0.000000,-0.000000,0.000000,-0.001133,-0.024667,0.005659,1.342467,0.000042,-0.000018,-0.001769,2.701815, 0.955722, 0.119866, 0.000940,0.000000, 0.000000, 0.000000, 0.775138, 0.631620, 0.011977, 0.000000, 0.000000, 0.000000
1.513560,0.000000,0.000000,0.000000,0.000000,0.000000,0.000000,-0.000000,0.000000,0.002640,-0.004143,0.000925,0.227919,0.000037,-0.000015,-0.001546,2.701815, 0.955722, 0.119898, -0.003059,0.000000, 0.000000, 0.000000, 0.775138, 0.631620, 0.011983, 0.000000, 0.000000, 0.000000
1.528491,0.000000,0.000000,0.000000,0.000000,0.000000,0.000000,-0.000000,0.000000,0.008137,-0.002318,0.000494,0.129686,0.000032,-0.000011,-0.001313,2.701815, 0.955721, 0.119925, -0.008748,0.000000, 0.000000, 0.000000, 0.775138, 0.631619, 0.011991, 0.000000, 0.000000, 0.000000
1.573716,0.000000,0.000000,0.000000,0.000000,0.000000,0.000000,-0.000000,0.000000,-0.002155,-0.011597,0.001882,0.697531,0.000022,-0.000002,-0.000828,2.701815, 0.955720, 0.119966, 0.003298,0.000000, 0.000000, 0.000000, 0.775138, 0.631619, 0.012012, 0.000000, 0.000000, 0.000000
1.588712,0.000000,0.000000,0.000000,0.000000,0.000000,0.000000,-0.000000,0.000000,-0.001963,-0.001487,0.000139,0.097139,0.000017,0.000002,-0.000585,2.701815, 0.955720, 0.119979, 0.001941,0.000000, 0.000000, 0.000000, 0.775137, 0.631618, 0.012024, 0.000000, 0.000000, 0.000000
1.604168,0.000000,0.000000,0.000000,0.000000,0.000000,0.000000,-0.000000,0.000000,0.001996,-0.001487,0.000139,0.097139,0.000017,0.000002,-0.000585,2.701815, 0.955720, 0.119979, -0.002435,0.000000, 0.000000, 0.000000, 0.775137, 0.631618, 0.012024, 0.000000, 0.000000, 0.000000
1.618743,0.000000,0.000000,0.000000,0.000000,0.000000,0.000000,-0.000000,0.000000,-0.003092,-0.000512,-0.000046,0.040635,0.000012,0.000006,-0.000344,2.701815, 0.955720, 0.119987, 0.003658,0.000000, 0.000000, 0.000000, 0.775137, 0.631618, 0.012038, 0.000000, 0.000000, 0.000000
1.633488,0.000000,0.000000,0.000000,0.000000,0.000000,0.000000,-0.000000,0.000000,-0.003518,-0.000112,-0.000236,0.025926,0.000007,0.000010,-0.000109,2.701815, 0.955720, 0.119990, 0.003565,0.000000, 0.000000, 0.000000, 0.775137, 0.631618, 0.012052, 0.000000, 0.000000, 0.000000
1.647987,0.000000,0.000000,0.000000,0.000000,0.000000,0.000000,-0.000000,0.000000,0.007735,0.000369,-0.000349,-0.000674,0.000002,0.000013,0.000123,2.701816, 0.955719, 0.119989, -0.008985,0.000000, 0.000000, 0.000000, 0.775137, 0.631617, 0.012067, 0.000000, 0.000000, 0.000000
1.663169,0.000000,0.000000,0.000000,0.000000,0.000000,0.000000,-0.000000,0.000000,-0.001696,0.000820,-0.000482,-0.023026,-0.000003,0.000017,0.000344,2.701816, 0.955719, 0.119983, 0.002743,0.000000, 0.000000, 0.000000, 0.775137, 0.631617, 0.012083, 0.000000, 0.000000, 0.000000
1.677840,0.000000,0.000000,0.000000,0.000000,0.000000,0.000000,-0.000000,0.000000,0.001671,0.000820,-0.000482,-0.023026,-0.000003,0.000017,0.000344,2.701816, 0.955719, 0.119983, -0.002045,0.000000, 0.000000, 0.000000, 0.775137, 0.631617, 0.012083, 0.000000, 0.000000, 0.000000
1.692513,0.000000,0.000000,0.000000,0.000000,0.000000,0.000000,-0.000000,0.000000,-0.007195,0.001216,-0.000593,-0.042697,-0.000008,0.000020,0.000551,2.701816, 0.955719, 0.119973, 0.008180,0.000000, 0.000000, 0.000000, 0.775136, 0.631617, 0.012099, 0.000000, 0.000000, 0.000000
1.707365,0.000000,0.000000,0.000000,0.000000,0.000000,0.000000,-0.000000,0.000000,-0.001394,0.001749,-0.000780,-0.066861,-0.000012,0.000023,0.000746,2.701816, 0.955719, 0.119959, 0.000750,0.000000, 0.000000, 0.000000, 0.775136, 0.631616, 0.012115, 0.000000, 0.000000, 0.000000
1.722165,0.000000,0.000000,0.000000,0.000000,0.000000,0.000000,-0.000000,0.000000,0.001585,0.001749,-0.000780,-0.066861,-0.000012,0.000023,0.000746,2.701816, 0.955719, 0.119959, -0.001916,0.000000, 0.000000, 0.000000, 0.775136, 0.631616, 0.012115, 0.000000, 0.000000, 0.000000
1.737147,0.000000,0.000000,0.000000,0.000000,0.000000,0.000000,-0.000000,0.000000,-0.008019,0.001779,-0.000756,-0.071059,-0.000016,0.000026,0.000925,2.701816, 0.955719, 0.119942, 0.009086,0.000000, 0.000000, 0.000000, 0.775136, 0.631616, 0.012130, 0.000000, 0.000000, 0.000000
1.751730,0.000000,0.000000,0.000000,0.000000,0.000000,0.000000,-0.000000,0.000000,-0.002752,0.002902,-0.001202,-0.119080,-0.000020,0.000029,0.001083,2.701816, 0.955719, 0.119921, 0.002167,0.000000, 0.000000, 0.000000, 0.775136, 0.631616, 0.012145, 0.000000, 0.000000, 0.000000
1.767143,0.000000,0.000000,0.000000,0.000000,0.000000,0.000000,-0.000000,0.000000,0.006059,0.002391,-0.000967,-0.099752,-0.000023,0.000031,0.001229,2.701816, 0.955719, 0.119897, -0.007038,0.000000, 0.000000, 0.000000, 0.775136, 0.631615, 0.012160, 0.000000, 0.000000, 0.000000
1.782762,0.000000,0.000000,0.000000,0.000000,0.000000,0.000000,-0.000000,0.000000,-0.000256,0.002391,-0.000967,-0.099752,-0.000023,0.000031,0.001229,2.701816, 0.955719, 0.119897, 0.000958,0.000000, 0.000000, 0.000000, 0.775136, 0.631615, 0.012160, 0.000000, 0.000000, 0.000000
1.797405,0.000000,0.000000,0.000000,0.000000,0.000000,0.000000,-0.000000,0.000000,-0.006474,0.003518,-0.001405,-0.148556,-0.000026,0.000034,0.001354,2.701816, 0.955719, 0.119870, 0.007165,0.000000, 0.000000, 0.000000, 0.775135, 0.631615, 0.012174, 0.000000, 0.000000, 0.000000
1.812010,0.000000,0.000000,0.000000,0.000000,0.000000,0.000000,-0.000000,0.000000,-0.001536,0.003301,-0.001306,-0.140598,-0.000029,0.000035,0.001461,2.701816, 0.955719, 0.119842, 0.000988,0.000000, 0.000000, 0.000000, 0.775135, 0.631615, 0.012187, 0.000000, 0.000000, 0.000000
1.826610,0.000000,0.000000,0.000000,0.000000,0.000000,0.000000,-0.000000,0.000000,0.000231,0.003301,-0.001306,-0.140598,-0.000029,0.000035,0.001461,2.701816, 0.955719, 0.119842, -0.000427,0.000000, 0.000000, 0.000000, 0.775135, 0.631615, 0.012187, 0.000000, 0.000000, 0.000000
1.862198,0.000000,0.000000,0.000000,0.000000,0.000000,0.000000,-0.000000,0.000000,-0.001834,0.138469,-0.054144,-5.964578,-0.000033,0.000038,0.001619,2.701816, 0.955719, 0.119779, 0.002063,0.000000, 0.000000, 0.000000, 0.775135, 0.631614, 0.012210, 0.000000, 0.000000, 0.000000
1.876873,0.000000,0.000000,0.000000,0.000000,0.000000,0.000000,-0.000000,0.000000,-0.003571,0.004291,-0.001671,-0.185529,-0.000034,0.000038,0.001672,2.701817, 0.955720, 0.119746, 0.003764,0.000000, 0.000000, 0.000000, 0.775135, 0.631614, 0.012220, 0.000000, 0.000000, 0.000000
1.891544,0.000000,0.000000,0.000000,0.000000,0.000000,0.000000,-0.000000,0.000000,0.008389,0.003990,-0.001551,-0.173042,-0.000035,0.000039,0.001705,2.701817, 0.955720, 0.119712, -0.009718,0.000000, 0.000000, 0.000000, 0.775135, 0.631614, 0.012228, 0.000000, 0.000000, 0.000000
1.936982,0.000000,0.000000,0.000000,0.000000,0.000000,0.000000,-0.000000,0.000000,-0.008892,0.029255,-0.011373,-1.275985,-0.000035,0.000038,0.001712,2.701817, 0.955720, 0.119643, 0.010812,0.000000, 0.000000, 0.000000, 0.775135, 0.631613, 0.012241, 0.000000, 0.000000, 0.000000
1.951546,0.000000,0.000000,0.000000,0.000000,0.000000,0.000000,-0.000000,0.000000,-0.003826,0.005000,-0.001943,-0.218652,-0.000035,0.000037,0.001688,2.701817, 0.955720, 0.119609, 0.003263,0.000000, 0.000000, 0.000000, 0.775134, 0.631613, 0.012245, 0.000000, 0.000000, 0.000000
1.968119,0.000000,0.000000,0.000000,0.000000,0.000000,0.000000,-0.000000,0.000000,-0.005336,0.003363,-0.001306,-0.147430,-0.000034,0.000036,0.001648,2.701817, 0.955721, 0.119576, 0.005503,0.000000, 0.000000, 0.000000, 0.775134, 0.631613, 0.012248, 0.000000, 0.000000, 0.000000
1.983543,0.000000,0.000000,0.000000,0.000000,0.000000,0.000000,-0.000000,0.000000,-0.007806,0.003363,-0.001306,-0.147430,-0.000034,0.000036,0.001648,2.701817, 0.955721, 0.119576, 0.008080,0.000000, 0.000000, 0.000000, 0.775134, 0.631613, 0.012248, 0.000000, 0.000000, 0.000000
1.998372,0.000000,0.000000,0.000000,0.000000,0.000000,0.000000,-0.000000,0.000000,-0.004888,0.004129,-0.001605,-0.181480,-0.000033,0.000035,0.001593,2.701817, 0.955721, 0.119544, 0.004564,0.000000, 0.000000, 0.000000, 0.775134, 0.631613, 0.012249, 0.000000, 0.000000, 0.000000
2.013354,0.000000,0.000000,0.000000,0.000000,0.000000,0.000000,-0.000000,0.000000,-0.004526,0.003431,-0.001325,-0.151073,-0.000031,0.000033,0.001525,2.701817, 0.955721, 0.119513, 0.004486,0.000000, 0.000000, 0.000000, 0.775134, 0.631613, 0.012249, 0.000000, 0.000000, 0.000000
2.058608,0.000000,0.000000,0.000000,0.000000,0.000000,0.000000,-0.000000,0.000000,0.005697,0.028443,-0.011066,-1.258993,-0.000027,0.000029,0.001345,2.701817, 0.955721, 0.119457, -0.006833,0.000000, 0.000000, 0.000000, 0.775134, 0.631613, 0.012245, 0.000000, 0.000000, 0.000000
2.073230,0.000000,0.000000,0.000000,0.000000,0.000000,0.000000,-0.000000,0.000000,-0.002966,0.003819,-0.001506,-0.169647,-0.000025,0.000027,0.001238,2.701817, 0.955721, 0.119431, 0.003928,0.000000, 0.000000, 0.000000, 0.775135, 0.631613, 0.012241, 0.000000, 0.000000, 0.000000
2.097983,0.000000,0.000000,0.000000,0.000000,0.000000,0.000000,-0.000000,0.000000,-0.003699,0.002445,-0.000971,-0.109594,-0.000022,0.000024,0.001117,2.701817, 0.955722, 0.119408, 0.003780,0.000000, 0.000000, 0.000000, 0.775135, 0.631613, 0.012236, 0.000000, 0.000000, 0.000000
2.132869,0.000000,0.000000,0.000000,0.000000,0.000000,0.000000,-0.000000,0.000000,0.000576,0.015690,-0.006135,-0.712354,-0.000017,0.000018,0.000859,2.701817, 0.955722, 0.119370, -0.001051,0.000000, 0.000000, 0.000000, 0.775135, 0.631613, 0.012223, 0.000000, 0.000000, 0.000000
2.147466,0.000000,0.000000,0.000000,0.000000,0.000000,0.000000,-0.000000,0.000000,-0.003965,0.002300,-0.000903,-0.105458,-0.000013,0.000016,0.000723,2.701818, 0.955722, 0.119355, 0.004470,0.000000, 0.000000, 0.000000, 0.775135, 0.631613, 0.012216, 0.000000, 0.000000, 0.000000
2.163375,0.000000,0.000000,0.000000,0.000000,0.000000,0.000000,-0.000000,0.000000,-0.000993,0.001315,-0.000517,-0.061068,-0.000010,0.000013,0.000585,2.701818, 0.955722, 0.119343, 0.000663,0.000000, 0.000000, 0.000000, 0.775135, 0.631614, 0.012207, 0.000000, 0.000000, 0.000000
2.178279,0.000000,0.000000,0.000000,0.000000,0.000000,0.000000,-0.000000,0.000000,-0.000696,0.001315,-0.000517,-0.061068,-0.000010,0.000013,0.000585,2.701818, 0.955722, 0.119343, 0.000663,0.000000, 0.000000, 0.000000, 0.775135, 0.631614, 0.012207, 0.000000, 0.000000, 0.000000
2.213381,0.000000,0.000000,0.000000,0.000000,0.000000,0.000000,-0.000000,0.000000,0.002122,0.007389,-0.002956,-0.362171,-0.000004,0.000007,0.000303,2.701818, 0.955722, 0.119326, -0.002435,0.000000, 0.000000, 0.000000, 0.775135, 0.631614, 0.012189, 0.000000, 0.000000, 0.000000
2.228433,0.000000,0.000000,0.000000,0.000000,0.000000,0.000000,-0.000000,0.000000,-0.012026,0.000576,-0.000233,-0.030345,-0.000001,0.000004,0.000166,2.701818, 0.955722, 0.119322, 0.013598,0.000000, 0.000000, 0.000000, 0.775135, 0.631614, 0.012179, 0.000000, 0.000000, 0.000000
2.243242,0.000000,0.000000,0.000000,0.000000,0.000000,0.000000,-0.000000,0.000000,-0.003274,0.000576,-0.000233,-0.030345,-0.000001,0.000004,0.000166,2.701818, 0.955722, 0.119322, 0.002301,0.000000, 0.000000, 0.000000, 0.775135, 0.631614, 0.012179, 0.000000, 0.000000, 0.000000
2.257821,0.000000,0.000000,0.000000,0.000000,0.000000,0.000000,-0.000000,0.000000,-0.001590,0.000122,-0.000056,-0.008774,0.000002,0.000001,0.000030,2.701818, 0.955722, 0.119321, 0.001403,0.000000, 0.000000, 0.000000, 0.775136, 0.631614, 0.012169, 0.000000, 0.000000, 0.000000
2.272443,0.000000,0.000000,0.000000,0.000000,0.000000,0.000000,-0.000000,0.000000,-0.000138,-0.000173,0.000055,0.003955,0.000005,-0.000001,-0.000101,2.701818, 0.955722, 0.119322, -0.000024,0.000000, 0.000000, 0.000000, 0.775136, 0.631614, 0.012159, 0.000000, 0.000000, 0.000000
2.287156,0.000000,0.000000,0.000000,0.000000,0.000000,0.000000,-0.000000,0.000000,0.001039,-0.000374,0.000128,0.013922,0.000008,-0.000004,-0.000227,2.701818, 0.955722, 0.119326, -0.001170,0.000000, 0.000000, 0.000000, 0.775136, 0.631614, 0.012149, 0.000000, 0.000000, 0.000000
2.301697,0.000000,0.000000,0.000000,0.000000,0.000000,0.000000,-0.000000,0.000000,0.001943,-0.000374,0.000128,0.013922,0.000008,-0.000004,-0.000227,2.701818, 0.955722, 0.119326, -0.002044,0.000000, 0.000000, 0.000000, 0.775136, 0.631614, 0.012149, 0.000000, 0.000000, 0.000000
2.316464,0.000000,0.000000,0.000000,0.000000,0.000000,0.000000,-0.000000,0.000000,0.006101,-0.000858,0.000303,0.034501,0.000010,-0.000006,-0.000346,2.701818, 0.955722, 0.119333, -0.006563,0.000000, 0.000000, 0.000000, 0.775136, 0.631615, 0.012139, 0.000000, 0.000000, 0.000000
2.331307,0.000000,0.000000,0.000000,0.000000,0.000000,0.000000,-0.000000,0.000000,-0.000812,-0.000859,0.000308,0.035585,0.000013,-0.000008,-0.000460,2.701818, 0.955722, 0.119341, 0.001580,0.000000, 0.000000, 0.000000, 0.775136, 0.631615, 0.012130, 0.000000, 0.000000, 0.000000
2.345837,0.000000,0.000000,0.000000,0.000000,0.000000,0.000000,-0.000000,0.000000,0.005780,-0.001361,0.000496,0.057376,0.000015,-0.000011,-0.000562,2.701818, 0.955722, 0.119352, -0.006513,0.000000, 0.000000, 0.000000, 0.775136, 0.631615, 0.012121, 0.000000, 0.000000, 0.000000
2.360793,0.000000,0.000000,0.000000,0.000000,0.000000,0.000000,-0.000000,0.000000,0.001304,-0.001361,0.000496,0.057376,0.000015,-0.000011,-0.000562,2.701818, 0.955722, 0.119352, -0.000807,0.000000, 0.000000, 0.000000, 0.775136, 0.631615, 0.012121, 0.000000, 0.000000, 0.000000
2.375426,0.000000,0.000000,0.000000,0.000000,0.000000,0.000000,-0.000000,0.000000,-0.004683,-0.001349,0.000496,0.057550,0.000017,-0.000012,-0.000654,2.701818, 0.955722, 0.119365, 0.005348,0.000000, 0.000000, 0.000000, 0.775136, 0.631615, 0.012112, 0.000000, 0.000000, 0.000000
2.410592,0.000000,0.000000,0.000000,0.000000,0.000000,0.000000,-0.000000,0.000000,0.006057,-0.000843,0.000311,0.036279,0.000019,-0.000014,-0.000738,2.701818, 0.955722, 0.119379, -0.007250,0.000000, 0.000000, 0.000000, 0.775136, 0.631615, 0.012104, 0.000000, 0.000000, 0.000000
2.426780,0.000000,0.000000,0.000000,0.000000,0.000000,0.000000,-0.000000,0.000000,0.008179,-0.003292,0.001221,0.142540,0.000020,-0.000015,-0.000809,2.701818, 0.955721, 0.119395, -0.008415,0.000000, 0.000000, 0.000000, 0.775137, 0.631615, 0.012097, 0.000000, 0.000000, 0.000000
2.441668,0.000000,0.000000,0.000000,0.000000,0.000000,0.000000,-0.000000,0.000000,0.005446,-0.002163,0.000804,0.094155,0.000021,-0.000017,-0.000871,2.701818, 0.955721, 0.119412, -0.005143,0.000000, 0.000000, 0.000000, 0.775137, 0.631616, 0.012090, 0.000000, 0.000000, 0.000000
2.456486,0.000000,0.000000,0.000000,0.000000,0.000000,0.000000,-0.000000,0.000000,-0.002274,-0.002163,0.000804,0.094155,0.000021,-0.000017,-0.000871,2.701818, 0.955721, 0.119412, 0.003131,0.000000, 0.000000, 0.000000, 0.775137, 0.631616, 0.012090, 0.000000, 0.000000, 0.000000
2.492282,0.000000,0.000000,0.000000,0.000000,0.000000,0.000000,-0.000000,0.000000,0.007397,-0.009760,0.003646,0.430509,0.000023,-0.000019,-0.000982,2.701818, 0.955721, 0.119468, -0.008472,0.000000, 0.000000, 0.000000, 0.775137, 0.631616, 0.012075, 0.000000, 0.000000, 0.000000
2.506837,0.000000,0.000000,0.000000,0.000000,0.000000,0.000000,-0.000000,0.000000,0.000971,-0.009760,0.003646,0.430509,0.000023,-0.000019,-0.000982,2.701818, 0.955721, 0.119468, -0.000257,0.000000, 0.000000, 0.000000, 0.775137, 0.631616, 0.012075, 0.000000, 0.000000, 0.000000
2.521774,0.000000,0.000000,0.000000,0.000000,0.000000,0.000000,-0.000000,0.000000,0.005037,-0.002201,0.000822,0.097409,0.000024,-0.000019,-0.000997,2.701818, 0.955721, 0.119488, -0.005488,0.000000, 0.000000, 0.000000, 0.775137, 0.631616, 0.012072, 0.000000, 0.000000, 0.000000
2.536687,0.000000,0.000000,0.000000,0.000000,0.000000,0.000000,-0.000000,0.000000,-0.004967,-0.002227,0.000833,0.098876,0.000023,-0.000019,-0.001001,2.701818, 0.955720, 0.119508, 0.006079,0.000000, 0.000000, 0.000000, 0.775137, 0.631616, 0.012070, 0.000000, 0.000000, 0.000000
2.572098,0.000000,0.000000,0.000000,0.000000,0.000000,0.000000,-0.000000,0.000000,0.000539,-0.012457,0.004632,0.557426,0.000023,-0.000018,-0.000980,2.701818, 0.955720, 0.119548, -0.001151,0.000000, 0.000000, 0.000000, 0.775137, 0.631616, 0.012068, 0.000000, 0.000000, 0.000000
2.586699,0.000000,0.000000,0.000000,0.000000,0.000000,0.000000,-0.000000,0.000000,-0.009073,-0.003402,0.001249,0.153174,0.000022,-0.000018,-0.000954,2.701818, 0.955720, 0.119567, 0.010141,0.000000, 0.000000, 0.000000, 0.775137, 0.631616, 0.012068, 0.000000, 0.000000, 0.000000
2.602674,0.000000,0.000000,0.000000,0.000000,0.000000,0.000000,-0.000000,0.000000,-0.000196,-0.003402,0.001249,0.153174,0.000022,-0.000018,-0.000954,2.701818, 0.955720, 0.119567, -0.000791,0.000000, 0.000000, 0.000000, 0.775137, 0.631616, 0.012068, 0.000000, 0.000000, 0.000000
2.617338,0.000000,0.000000,0.000000,0.000000,0.000000,0.000000,-0.000000,0.000000,-0.000718,-0.001971,0.000715,0.089196,0.000021,-0.000017,-0.000920,2.701818, 0.955720, 0.119586, 0.000776,0.000000, 0.000000, 0.000000, 0.775137, 0.631616, 0.012069, 0.000000, 0.000000, 0.000000
2.692899,0.000000,0.000000,0.000000,0.000000,0.000000,0.000000,-0.000000,0.000000,0.005835,-0.017668,0.006803,0.806766,0.000016,-0.000013,-0.000700,2.701818, 0.955719, 0.119650, -0.006563,0.000000, 0.000000, 0.000000, 0.775137, 0.631616, 0.012081, 0.000000, 0.000000, 0.000000
2.708670,0.000000,0.000000,0.000000,0.000000,0.000000,0.000000,-0.000000,0.000000,0.002613,-0.001440,0.000549,0.066025,0.000014,-0.000011,-0.000629,2.701818, 0.955719, 0.119663, -0.002255,0.000000, 0.000000, 0.000000, 0.775137, 0.631616, 0.012085, 0.000000, 0.000000, 0.000000
2.733548,0.000000,0.000000,0.000000,0.000000,0.000000,0.000000,-0.000000,0.000000,-0.001839,-0.001440,0.000549,0.066025,0.000014,-0.000011,-0.000629,2.701818, 0.955719, 0.119663, 0.002334,0.000000, 0.000000, 0.000000, 0.775137, 0.631616, 0.012085, 0.000000, 0.000000, 0.000000
2.768556,0.000000,0.000000,0.000000,0.000000,0.000000,0.000000,-0.000000,0.000000,0.000267,-0.002850,0.001038,0.135001,0.000009,-0.000007,-0.000397,2.701818, 0.955719, 0.119693, -0.000501,0.000000, 0.000000, 0.000000, 0.775136, 0.631616, 0.012102, 0.000000, 0.000000, 0.000000
2.793314,0.000000,0.000000,0.000000,0.000000,0.000000,0.000000,-0.000000,0.000000,-0.001424,-0.000729,0.000258,0.035333,0.000007,-0.000005,-0.000315,2.701818, 0.955719, 0.119700, 0.001612,0.000000, 0.000000, 0.000000, 0.775136, 0.631616, 0.012108, 0.000000, 0.000000, 0.000000
2.808260,0.000000,0.000000,0.000000,0.000000,0.000000,0.000000,-0.000000,0.000000,0.001819,-0.000729,0.000258,0.035333,0.000007,-0.000005,-0.000315,2.701818, 0.955719, 0.119700, -0.002179,0.000000, 0.000000, 0.000000, 0.775136, 0.631616, 0.012108, 0.000000, 0.000000, 0.000000
2.822900,0.000000,0.000000,0.000000,0.000000,0.000000,0.000000,-0.000000,0.000000,0.001038,-0.000530,0.000179,0.026682,0.000005,-0.000003,-0.000232,2.701818, 0.955719, 0.119705, -0.000951,0.000000, 0.000000, 0.000000, 0.775136, 0.631616, 0.012114, 0.000000, 0.000000, 0.000000
2.858232,0.000000,0.000000,0.000000,0.000000,0.000000,0.000000,-0.000000,0.000000,0.004282,-0.001720,0.000334,0.112265,0.000001,-0.000000,-0.000072,2.701818, 0.955719, 0.119710, -0.004642,0.000000, 0.000000, 0.000000, 0.775136, 0.631616, 0.012128, 0.000000, 0.000000, 0.000000
2.874016,0.000000,0.000000,0.000000,0.000000,0.000000,0.000000,-0.000000,0.000000,0.005477,0.000008,-0.000047,0.004353,-0.000001,0.000001,0.000005,2.701818, 0.955719, 0.119710, -0.005610,0.000000, 0.000000, 0.000000, 0.775136, 0.631616, 0.012135, 0.000000, 0.000000, 0.000000
2.891369,0.000000,0.000000,0.000000,0.000000,0.000000,0.000000,-0.000000,0.000000,-0.002121,0.000165,-0.000093,-0.003689,-0.000003,0.000003,0.000078,2.701818, 0.955719, 0.119709, 0.002966,0.000000, 0.000000, 0.000000, 0.775136, 0.631616, 0.012141, 0.000000, 0.000000, 0.000000
2.936927,0.000000,0.000000,0.000000,0.000000,0.000000,0.000000,-0.000000,0.000000,-0.000635,0.003331,-0.001561,-0.121161,-0.000006,0.000005,0.000211,2.701818, 0.955719, 0.119702, 0.000469,0.000000, 0.000000, 0.000000, 0.775136, 0.631616, 0.012155, 0.000000, 0.000000, 0.000000
2.951616,0.000000,0.000000,0.000000,0.000000,0.000000,0.000000,-0.000000,0.000000,-0.002934,0.000813,-0.000364,-0.031000,-0.000007,0.000006,0.000273,2.701818, 0.955719, 0.119697, 0.003190,0.000000, 0.000000, 0.000000, 0.775136, 0.631615, 0.012161, 0.000000, 0.000000, 0.000000
2.968172,0.000000,0.000000,0.000000,0.000000,0.000000,0.000000,-0.000000,0.000000,-0.001970,0.000755,-0.000329,-0.029603,-0.000009,0.000007,0.000330,2.701818, 0.955719, 0.119691, 0.001863,0.000000, 0.000000, 0.000000, 0.775136, 0.631615, 0.012168, 0.000000, 0.000000, 0.000000
2.983197,0.000000,0.000000,0.000000,0.000000,0.000000,0.000000,-0.000000,0.000000,-0.005421,0.000755,-0.000329,-0.029603,-0.000009,0.000007,0.000330,2.701818, 0.955719, 0.119691, 0.005804,0.000000, 0.000000, 0.000000, 0.775136, 0.631615, 0.012168, 0.000000, 0.000000, 0.000000
3.019161,0.000000,0.000000,0.000000,0.000000,0.000000,0.000000,-0.000000,0.000000,0.002513,0.024966,-0.010575,-1.009163,-0.000011,0.000009,0.000431,2.701818, 0.955719, 0.119675, -0.003394,0.000000, 0.000000, 0.000000, 0.775135, 0.631615, 0.012179, 0.000000, 0.000000, 0.000000
3.034491,0.000000,0.000000,0.000000,0.000000,0.000000,0.000000,-0.000000,0.000000,-0.000198,0.001406,-0.000593,-0.057394,-0.000012,0.000010,0.000471,2.701818, 0.955719, 0.119666, 0.000499,0.000000, 0.000000, 0.000000, 0.775135, 0.631615, 0.012185, 0.000000, 0.000000, 0.000000
3.050189,0.000000,0.000000,0.000000,0.000000,0.000000,0.000000,-0.000000,0.000000,0.000057,0.001406,-0.000593,-0.057394,-0.000012,0.000010,0.000471,2.701818, 0.955719, 0.119666, -0.000085,0.000000, 0.000000, 0.000000, 0.775135, 0.631615, 0.012185, 0.000000, 0.000000, 0.000000
3.066170,0.000000,0.000000,0.000000,0.000000,0.000000,0.000000,-0.000000,0.000000,0.000111,0.000799,-0.000335,-0.032841,-0.000013,0.000011,0.000504,2.701818, 0.955719, 0.119656, -0.000117,0.000000, 0.000000, 0.000000, 0.775135, 0.631615, 0.012189, 0.000000, 0.000000, 0.000000
3.082510,0.000000,0.000000,0.000000,0.000000,0.000000,0.000000,-0.000000,0.000000,-0.003121,0.002268,-0.000945,-0.093697,-0.000013,0.000011,0.000533,2.701818, 0.955719, 0.119646, 0.003480,0.000000, 0.000000, 0.000000, 0.775135, 0.631615, 0.012193, 0.000000, 0.000000, 0.000000
3.098625,0.000000,0.000000,0.000000,0.000000,0.000000,0.000000,-0.000000,0.000000,-0.005060,0.001307,-0.000545,-0.054273,-0.000014,0.000012,0.000553,2.701818, 0.955719, 0.119635, 0.005276,0.000000, 0.000000, 0.000000, 0.775135, 0.631615, 0.012197, 0.000000, 0.000000, 0.000000
3.115018,0.000000,0.000000,0.000000,0.000000,0.000000,0.000000,-0.000000,0.000000,-0.001902,0.001282,-0.000534,-0.053451,-0.000014,0.000012,0.000566,2.701818, 0.955719, 0.119623, 0.001551,0.000000, 0.000000, 0.000000, 0.775135, 0.631615, 0.012200, 0.000000, 0.000000, 0.000000
3.161622,0.000000,0.000000,0.000000,0.000000,0.000000,0.000000,-0.000000,0.000000,-0.000148,0.005761,-0.002366,-0.244217,-0.000014,0.000012,0.000574,2.701818, 0.955719, 0.119600, -0.000047,0.000000, 0.000000, 0.000000, 0.775135, 0.631615, 0.012204, 0.000000, 0.000000, 0.000000
3.188198,0.000000,0.000000,0.000000,0.000000,0.000000,0.000000,-0.000000,0.000000,-0.002883,0.005217,-0.002093,-0.223301,-0.000013,0.000011,0.000558,2.701818, 0.955719, 0.119578, 0.003187,0.000000, 0.000000, 0.000000, 0.775135, 0.631615, 0.012206, 0.000000, 0.000000, 0.000000
3.204262,0.000000,0.000000,0.000000,0.000000,0.000000,0.000000,-0.000000,0.000000,-0.001650,0.005217,-0.002093,-0.223301,-0.000013,0.000011,0.000558,2.701818, 0.955719, 0.119578, 0.001514,0.000000, 0.000000, 0.000000, 0.775135, 0.631615, 0.012206, 0.000000, 0.000000, 0.000000
3.220844,0.000000,0.000000,0.000000,0.000000,0.000000,0.000000,-0.000000,0.000000,-0.010845,0.001260,-0.000503,-0.053562,-0.000013,0.000011,0.000542,2.701818, 0.955719, 0.119567, 0.011866,0.000000, 0.000000, 0.000000, 0.775135, 0.631615, 0.012206, 0.000000, 0.000000, 0.000000
3.236613,0.000000,0.000000,0.000000,0.000000,0.000000,0.000000,-0.000000,0.000000,0.000458,0.001260,-0.000503,-0.053562,-0.000013,0.000011,0.000542,2.701818, 0.955719, 0.119567, -0.001714,0.000000, 0.000000, 0.000000, 0.775135, 0.631615, 0.012206, 0.000000, 0.000000, 0.000000
3.261909,0.000000,0.000000,0.000000,0.000000,0.000000,0.000000,-0.000000,0.000000,-0.005480,0.007877,-0.003289,-0.330699,-0.000012,0.000011,0.000494,2.701818, 0.955720, 0.119546, 0.006140,0.000000, 0.000000, 0.000000, 0.775135, 0.631615, 0.012204, 0.000000, 0.000000, 0.000000
3.287838,0.000000,0.000000,0.000000,0.000000,0.000000,0.000000,-0.000000,0.000000,-0.007501,0.002835,-0.001237,-0.118159,-0.000010,0.000009,0.000428,2.701818, 0.955720, 0.119528, 0.007726,0.000000, 0.000000, 0.000000, 0.775135, 0.631615, 0.012200, 0.000000, 0.000000, 0.000000
3.305049,0.000000,0.000000,0.000000,0.000000,0.000000,0.000000,-0.000000,0.000000,0.001320,0.002835,-0.001237,-0.118159,-0.000010,0.000009,0.000428,2.701818, 0.955720, 0.119528, -0.002300,0.000000, 0.000000, 0.000000, 0.775135, 0.631615, 0.012200, 0.000000, 0.000000, 0.000000
3.333109,0.000000,0.000000,0.000000,0.000000,0.000000,0.000000,-0.000000,0.000000,-0.003962,0.000621,-0.000279,-0.026074,-0.000009,0.000008,0.000391,2.701818, 0.955720, 0.119520, 0.004549,0.000000, 0.000000, 0.000000, 0.775135, 0.631615, 0.012197, 0.000000, 0.000000, 0.000000
3.382573,0.000000,0.000000,0.000000,0.000000,0.000000,0.000000,-0.000000,0.000000,-0.000643,0.014269,-0.006356,-0.603408,-0.000006,0.000005,0.000262,2.701818, 0.955720, 0.119501, 0.000274,0.000000, 0.000000, 0.000000, 0.775135, 0.631615, 0.012187, 0.000000, 0.000000, 0.000000
3.398629,0.000000,0.000000,0.000000,0.000000,0.000000,0.000000,-0.000000,0.000000,0.004500,0.000554,-0.000248,-0.023462,-0.000005,0.000005,0.000215,2.701818, 0.955720, 0.119497, -0.005071,0.000000, 0.000000, 0.000000, 0.775135, 0.631615, 0.012183, 0.000000, 0.000000, 0.000000
3.414892,0.000000,0.000000,0.000000,0.000000,0.000000,0.000000,-0.000000,0.000000,-0.002961,0.000456,-0.000209,-0.019363,-0.000004,0.000004,0.000167,2.701818, 0.955720, 0.119493, 0.003790,0.000000, 0.000000, 0.000000, 0.775135, 0.631615, 0.012179, 0.000000, 0.000000, 0.000000
3.460297,0.000000,0.000000,0.000000,0.000000,0.000000,0.000000,-0.000000,0.000000,-0.004221,0.001677,-0.000833,-0.071456,-0.000002,0.000002,0.000073,2.701818, 0.955720, 0.119489, 0.004361,0.000000, 0.000000, 0.000000, 0.775136, 0.631615, 0.012170, 0.000000, 0.000000, 0.000000
3.485290,0.000000,0.000000,0.000000,0.000000,0.000000,0.000000,-0.000000,0.000000,-0.003554,0.000018,-0.000036,-0.000710,0.000001,-0.000000,-0.000018,2.701818, 0.955720, 0.119488, 0.003480,0.000000, 0.000000, 0.000000, 0.775136, 0.631615, 0.012161, 0.000000, 0.000000, 0.000000
3.500030,0.000000,0.000000,0.000000,0.000000,0.000000,0.000000,-0.000000,0.000000,0.000100,0.000018,-0.000036,-0.000710,0.000001,-0.000000,-0.000018,2.701818, 0.955720, 0.119488, -0.000506,0.000000, 0.000000, 0.000000, 0.775136, 0.631615, 0.012161, 0.000000, 0.000000, 0.000000
3.514640,0.000000,0.000000,0.000000,0.000000,0.000000,0.000000,-0.000000,0.000000,0.000393,-0.000090,0.000017,0.003945,0.000002,-0.000001,-0.000061,2.701818, 0.955720, 0.119489, -0.000426,0.000000, 0.000000, 0.000000, 0.775136, 0.631615, 0.012157, 0.000000, 0.000000, 0.000000
3.529682,0.000000,0.000000,0.000000,0.000000,0.000000,0.000000,-0.000000,0.000000,-0.007280,-0.000161,0.000048,0.006958,0.000003,-0.000002,-0.000102,2.701818, 0.955720, 0.119491, 0.008132,0.000000, 0.000000, 0.000000, 0.775136, 0.631615, 0.012152, 0.000000, 0.000000, 0.000000
3.544528,0.000000,0.000000,0.000000,0.000000,0.000000,0.000000,-0.000000,0.000000,-0.006669,-0.000161,0.000048,0.006958,0.000003,-0.000002,-0.000102,2.701818, 0.955720, 0.119491, 0.006601,0.000000, 0.000000, 0.000000, 0.775136, 0.631615, 0.012152, 0.000000, 0.000000, 0.000000
3.559235,0.000000,0.000000,0.000000,0.000000,0.000000,0.000000,-0.000000,0.000000,-0.000971,-0.000329,0.000110,0.014220,0.000004,-0.000003,-0.000140,2.701818, 0.955720, 0.119494, 0.000338,0.000000, 0.000000, 0.000000, 0.775136, 0.631615, 0.012148, 0.000000, 0.000000, 0.000000
3.574000,0.000000,0.000000,0.000000,0.000000,0.000000,0.000000,-0.000000,0.000000,0.002559,-0.000314,0.000111,0.013526,0.000005,-0.000003,-0.000176,2.701818, 0.955720, 0.119497, -0.002951,0.000000, 0.000000, 0.000000, 0.775136, 0.631615, 0.012144, 0.000000, 0.000000, 0.000000
3.589077,0.000000,0.000000,0.000000,0.000000,0.000000,0.000000,-0.000000,0.000000,-0.000483,-0.000530,0.000192,0.022802,0.000005,-0.000004,-0.000210,2.701818, 0.955720, 0.119501, 0.000822,0.000000, 0.000000, 0.000000, 0.775136, 0.631615, 0.012140, 0.000000, 0.000000, 0.000000
3.603903,0.000000,0.000000,0.000000,0.000000,0.000000,0.000000,-0.000000,0.000000,-0.000466,-0.000530,0.000192,0.022802,0.000005,-0.000004,-0.000210,2.701818, 0.955720, 0.119501, 0.000464,0.000000, 0.000000, 0.000000, 0.775136, 0.631615, 0.012140, 0.000000, 0.000000, 0.000000
3.618699,0.000000,0.000000,0.000000,0.000000,0.000000,0.000000,-0.000000,0.000000,0.007547,-0.000519,0.000195,0.022378,0.000006,-0.000004,-0.000238,2.701818, 0.955720, 0.119506, -0.008437,0.000000, 0.000000, 0.000000, 0.775136, 0.631615, 0.012136, 0.000000, 0.000000, 0.000000
3.664000,0.000000,0.000000,0.000000,0.000000,0.000000,0.000000,-0.000000,0.000000,-0.001139,-0.001962,0.000764,0.084795,0.000008,-0.000006,-0.000299,2.701818, 0.955720, 0.119522, 0.002105,0.000000, 0.000000, 0.000000, 0.775136, 0.631616, 0.012126, 0.000000, 0.000000, 0.000000
3.678782,0.000000,0.000000,0.000000,0.000000,0.000000,0.000000,-0.000000,0.000000,0.005299,-0.001962,0.000764,0.084795,0.000008,-0.000006,-0.000299,2.701818, 0.955720, 0.119522, -0.006015,0.000000, 0.000000, 0.000000, 0.775136, 0.631616, 0.012126, 0.000000, 0.000000, 0.000000
3.694080,0.000000,0.000000,0.000000,0.000000,0.000000,0.000000,-0.000000,0.000000,0.003492,-0.000685,0.000270,0.029986,0.000008,-0.000006,-0.000312,2.701818, 0.955720, 0.119528, -0.003291,0.000000, 0.000000, 0.000000, 0.775136, 0.631616, 0.012123, 0.000000, 0.000000, 0.000000
3.709038,0.000000,0.000000,0.000000,0.000000,0.000000,0.000000,-0.000000,0.000000,0.001321,-0.000685,0.000270,0.029986,0.000008,-0.000006,-0.000312,2.701818, 0.955720, 0.119528, -0.001080,0.000000, 0.000000, 0.000000, 0.775136, 0.631616, 0.012123, 0.000000, 0.000000, 0.000000
3.744015,0.000000,0.000000,0.000000,0.000000,0.000000,0.000000,-0.000000,0.000000,0.002900,-0.002177,0.000815,0.096098,0.000008,-0.000006,-0.000329,2.701818, 0.955719, 0.119548, -0.003076,0.000000, 0.000000, 0.000000, 0.775136, 0.631616, 0.012117, 0.000000, 0.000000, 0.000000
3.758548,0.000000,0.000000,0.000000,0.000000,0.000000,0.000000,-0.000000,0.000000,0.001373,-0.002177,0.000815,0.096098,0.000008,-0.000006,-0.000329,2.701818, 0.955719, 0.119548, -0.001203,0.000000, 0.000000, 0.000000, 0.775136, 0.631616, 0.012117, 0.000000, 0.000000, 0.000000
3.773417,0.000000,0.000000,0.000000,0.000000,0.000000,0.000000,-0.000000,0.000000,-0.005593,-0.000739,0.000280,0.032501,0.000008,-0.000006,-0.000326,2.701818, 0.955719, 0.119554, 0.006367,0.000000, 0.000000, 0.000000, 0.775136, 0.631616, 0.012115, 0.000000, 0.000000, 0.000000
3.819510,0.000000,0.000000,0.000000,0.000000,0.000000,0.000000,-0.000000,0.000000,0.003471,-0.032012,0.012514,1.380569,0.000008,-0.000006,-0.000313,2.701818, 0.955719, 0.119567, -0.004479,0.000000, 0.000000, 0.000000, 0.775136, 0.631616, 0.012114, 0.000000, 0.000000, 0.000000
3.834174,0.000000,0.000000,0.000000,0.000000,0.000000,0.000000,-0.000000,0.000000,-0.000796,-0.000858,0.000342,0.036711,0.000008,-0.000006,-0.000303,2.701818, 0.955719, 0.119573, 0.001271,0.000000, 0.000000, 0.000000, 0.775136, 0.631616, 0.012113, 0.000000, 0.000000, 0.000000
3.849022,0.000000,0.000000,0.000000,0.000000,0.000000,0.000000,-0.000000,0.000000,-0.008816,-0.000858,0.000342,0.036711,0.000008,-0.000006,-0.000303,2.701818, 0.955719, 0.119573, 0.009707,0.000000, 0.000000, 0.000000, 0.775136, 0.631616, 0.012113, 0.000000, 0.000000, 0.000000
3.863628,0.000000,0.000000,0.000000,0.000000,0.000000,0.000000,-0.000000,0.000000,0.001719,-0.000651,0.000267,0.027675,0.000007,-0.000006,-0.000289,2.701818, 0.955719, 0.119579, -0.002889,0.000000, 0.000000, 0.000000, 0.775136, 0.631616, 0.012113, 0.000000, 0.000000, 0.000000
3.898854,0.000000,0.000000,0.000000,0.000000,0.000000,0.000000,-0.000000,0.000000,0.001867,-0.004900,0.002108,0.206713,0.000006,-0.000005,-0.000252,2.701818, 0.955719, 0.119590, -0.001883,0.000000, 0.000000, 0.000000, 0.775136, 0.631616, 0.012114, 0.000000, 0.000000, 0.000000
3.913517,0.000000,0.000000,0.000000,0.000000,0.000000,0.000000,-0.000000,0.000000,0.000402,-0.000768,0.000335,0.032329,0.000006,-0.000005,-0.000230,2.701818, 0.955719, 0.119595, -0.000239,0.000000, 0.000000, 0.000000, 0.775136, 0.631616, 0.012116, 0.000000, 0.000000, 0.000000
3.929004,0.000000,0.000000,0.000000,0.000000,0.000000,0.000000,-0.000000,0.000000,-0.001045,-0.000513,0.000227,0.021563,0.000005,-0.000004,-0.000207,2.701818, 0.955719, 0.119599, 0.001205,0.000000, 0.000000, 0.000000, 0.775136, 0.631616, 0.012117, 0.000000, 0.000000, 0.000000
3.943613,0.000000,0.000000,0.000000,0.000000,0.000000,0.000000,-0.000000,0.000000,0.002202,-0.000513,0.000227,0.021563,0.000005,-0.000004,-0.000207,2.701818, 0.955719, 0.119599, -0.002562,0.000000, 0.000000, 0.000000, 0.775136, 0.631616, 0.012117, 0.000000, 0.000000, 0.000000
3.958140,0.000000,0.000000,0.000000,0.000000,0.000000,0.000000,-0.000000,0.000000,0.000796,-0.000463,0.000208,0.019435,0.000005,-0.000004,-0.000183,2.701818, 0.955719, 0.119603, -0.000639,0.000000, 0.000000, 0.000000, 0.775136, 0.631616, 0.012118, 0.000000, 0.000000, 0.000000
3.974674,0.000000,0.000000,0.000000,0.000000,0.000000,0.000000,-0.000000,0.000000,-0.000897,-0.000378,0.000172,0.015895,0.000004,-0.000003,-0.000158,2.701818, 0.955719, 0.119606, 0.001085,0.000000, 0.000000, 0.000000, 0.775136, 0.631616, 0.012120, 0.000000, 0.000000, 0.000000
4.019801,0.000000,0.000000,0.000000,0.000000,0.000000,0.000000,-0.000000,0.000000,-0.001917,-0.039805,0.018718,1.696097,0.000003,-0.000002,-0.000108,2.701818, 0.955719, 0.119611, 0.002030,0.000000, 0.000000, 0.000000, 0.775136, 0.631616, 0.012125, 0.000000, 0.000000, 0.000000
4.034433,0.000000,0.000000,0.000000,0.000000,0.000000,0.000000,-0.000000,0.000000,-0.001099,-0.000427,0.000198,0.017865,0.000002,-0.000002,-0.000081,2.701818, 0.955719, 0.119613, 0.001008,0.000000, 0.000000, 0.000000, 0.775136, 0.631616, 0.012127, 0.000000, 0.000000, 0.000000
4.049922,0.000000,0.000000,0.000000,0.000000,0.000000,0.000000,-0.000000,0.000000,-0.000491,-0.000427,0.000198,0.017865,0.000002,-0.000002,-0.000081,2.701818, 0.955719, 0.119613, 0.000424,0.000000, 0.000000, 0.000000, 0.775136, 0.631616, 0.012127, 0.000000, 0.000000, 0.000000
4.064986,0.000000,0.000000,0.000000,0.000000,0.000000,0.000000,-0.000000,0.000000,-0.000881,-0.000097,0.000052,0.004241,0.000002,-0.000001,-0.000053,2.701818, 0.955719, 0.119614, 0.000924,0.000000, 0.000000, 0.000000, 0.775136, 0.631615, 0.012130, 0.000000, 0.000000, 0.000000
4.081195,0.000000,0.000000,0.000000,0.000000,0.000000,0.000000,-0.000000,0.000000,0.001793,-0.000181,0.000104,0.008470,0.000001,-0.000000,-0.000025,2.701818, 0.955719, 0.119615, -0.002090,0.000000, 0.000000, 0.000000, 0.775136, 0.631615, 0.012132, 0.000000, 0.000000, 0.000000
4.095947,0.000000,0.000000,0.000000,0.000000,0.000000,0.000000,-0.000000,0.000000,0.003266,-0.000025,0.000015,0.001229,0.000000,0.000000,0.000001,2.701818, 0.955719, 0.119615, -0.003430,0.000000, 0.000000, 0.000000, 0.775136, 0.631615, 0.012135, 0.000000, 0.000000, 0.000000
4.111667,0.000000,0.000000,0.000000,0.000000,0.000000,0.000000,-0.000000,0.000000,-0.003775,-0.000025,0.000015,0.001229,0.000000,0.000000,0.000001,2.701818, 0.955719, 0.119615, 0.004557,0.000000, 0.000000, 0.000000, 0.775136, 0.631615, 0.012135, 0.000000, 0.000000, 0.000000
4.136985,0.000000,0.000000,0.000000,0.000000,0.000000,0.000000,-0.000000,0.000000,0.002497,0.000335,-0.000124,-0.013742,-0.000001,0.000001,0.000049,2.701818, 0.955719, 0.119613, -0.003193,0.000000, 0.000000, 0.000000, 0.775136, 0.631615, 0.012141, 0.000000, 0.000000, 0.000000
4.163881,0.000000,0.000000,0.000000,0.000000,0.000000,0.000000,-0.000000,0.000000,0.002658,0.000183,-0.000069,-0.007727,-0.000002,0.000002,0.000070,2.701818, 0.955719, 0.119612, -0.002676,0.000000, 0.000000, 0.000000, 0.775136, 0.631615, 0.012143, 0.000000, 0.000000, 0.000000
4.179439,0.000000,0.000000,0.000000,0.000000,0.000000,0.000000,-0.000000,0.000000,-0.006577,0.000185,-0.000071,-0.007908,-0.000002,0.000002,0.000089,2.701818, 0.955719, 0.119610, 0.007603,0.000000, 0.000000, 0.000000, 0.775136, 0.631615, 0.012146, 0.000000, 0.000000, 0.000000
4.194748,0.000000,0.000000,0.000000,0.000000,0.000000,0.000000,-0.000000,0.000000,0.008192,0.000365,-0.000148,-0.016399,-0.000002,0.000002,0.000105,2.701818, 0.955719, 0.119608, -0.009833,0.000000, 0.000000, 0.000000, 0.775136, 0.631615, 0.012149, 0.000000, 0.000000, 0.000000
4.240762,0.000000,0.000000,0.000000,0.000000,0.000000,0.000000,-0.000000,0.000000,0.007360,0.062720,-0.022576,-2.931345,-0.000003,0.000002,0.000130,2.701818, 0.955719, 0.119604, -0.007267,0.000000, 0.000000, 0.000000, 0.775136, 0.631615, 0.012154, 0.000000, 0.000000, 0.000000
4.256193,0.000000,0.000000,0.000000,0.000000,0.000000,0.000000,-0.000000,0.000000,-0.002746,0.000301,-0.000099,-0.013787,-0.000004,0.000002,0.000141,2.701818, 0.955719, 0.119601, 0.003869,0.000000, 0.000000, 0.000000, 0.775136, 0.631615, 0.012156, 0.000000, 0.000000, 0.000000
4.272659,0.000000,0.000000,0.000000,0.000000,0.000000,0.000000,-0.000000,0.000000,0.000628,0.000301,-0.000099,-0.013787,-0.000004,0.000002,0.000141,2.701818, 0.955719, 0.119601, -0.001003,0.000000, 0.000000, 0.000000, 0.775136, 0.631615, 0.012156, 0.000000, 0.000000, 0.000000
4.288081,0.000000,0.000000,0.000000,0.000000,0.000000,0.000000,-0.000000,0.000000,-0.005905,0.000225,-0.000076,-0.010231,-0.000004,0.000003,0.000150,2.701818, 0.955719, 0.119598, 0.006631,0.000000, 0.000000, 0.000000, 0.775136, 0.631615, 0.012158, 0.000000, 0.000000, 0.000000
4.325065,0.000000,0.000000,0.000000,0.000000,0.000000,0.000000,-0.000000,0.000000,0.003489,0.001870,-0.000641,-0.082476,-0.000004,0.000003,0.000163,2.701818, 0.955719, 0.119592, -0.004533,0.000000, 0.000000, 0.000000, 0.775136, 0.631615, 0.012162, 0.000000, 0.000000, 0.000000
4.351256,0.000000,0.000000,0.000000,0.000000,0.000000,0.000000,-0.000000,0.000000,-0.007387,0.002374,-0.000892,-0.101178,-0.000004,0.000003,0.000173,2.701818, 0.955719, 0.119585, 0.008595,0.000000, 0.000000, 0.000000, 0.775136, 0.631615, 0.012164, 0.000000, 0.000000, 0.000000
4.378004,0.000000,0.000000,0.000000,0.000000,0.000000,0.000000,-0.000000,0.000000,-0.001311,0.000398,-0.000156,-0.016727,-0.000004,0.000004,0.000176,2.701818, 0.955719, 0.119581, 0.000635,0.000000, 0.000000, 0.000000, 0.775136, 0.631615, 0.012166, 0.000000, 0.000000, 0.000000
4.393891,0.000000,0.000000,0.000000,0.000000,0.000000,0.000000,-0.000000,0.000000,-0.001943,0.000431,-0.000176,-0.017905,-0.000004,0.000004,0.000175,2.701818, 0.955719, 0.119578, 0.002013,0.000000, 0.000000, 0.000000, 0.775136, 0.631615, 0.012167, 0.000000, 0.000000, 0.000000
4.410188,0.000000,0.000000,0.000000,0.000000,0.000000,0.000000,-0.000000,0.000000,-0.004883,0.000431,-0.000176,-0.017905,-0.000004,0.000004,0.000175,2.701818, 0.955719, 0.119578, 0.005210,0.000000, 0.000000, 0.000000, 0.775136, 0.631615, 0.012167, 0.000000, 0.000000, 0.000000
4.435652,0.000000,0.000000,0.000000,0.000000,0.000000,0.000000,-0.000000,0.000000,0.006960,0.000250,-0.000106,-0.010289,-0.000004,0.000004,0.000172,2.701818, 0.955719, 0.119574, -0.008275,0.000000, 0.000000, 0.000000, 0.775136, 0.631615, 0.012167, 0.000000, 0.000000, 0.000000
4.472414,0.000000,0.000000,0.000000,0.000000,0.000000,0.000000,-0.000000,0.000000,0.004741,0.107683,-0.049139,-4.331676,-0.000004,0.000004,0.000152,2.701818, 0.955719, 0.119565, -0.004495,0.000000, 0.000000, 0.000000, 0.775136, 0.631615, 0.012168, 0.000000, 0.000000, 0.000000
4.487550,0.000000,0.000000,0.000000,0.000000,0.000000,0.000000,-0.000000,0.000000,0.002648,0.000389,-0.000181,-0.015533,-0.000003,0.000003,0.000143,2.701818, 0.955719, 0.119562, -0.002415,0.000000, 0.000000, 0.000000, 0.775136, 0.631615, 0.012168, 0.000000, 0.000000, 0.000000
4.503026,0.000000,0.000000,0.000000,0.000000,0.000000,0.000000,-0.000000,0.000000,0.004527,0.000389,-0.000181,-0.015533,-0.000003,0.000003,0.000143,2.701818, 0.955719, 0.119562, -0.004736,0.000000, 0.000000, 0.000000, 0.775136, 0.631615, 0.012168, 0.000000, 0.000000, 0.000000
4.518512,0.000000,0.000000,0.000000,0.000000,0.000000,0.000000,-0.000000,0.000000,0.000390,0.000295,-0.000139,-0.011709,-0.000003,0.000003,0.000133,2.701818, 0.955719, 0.119559, 0.000069,0.000000, 0.000000, 0.000000, 0.775136, 0.631615, 0.012167, 0.000000, 0.000000, 0.000000
4.553895,0.000000,0.000000,0.000000,0.000000,0.000000,0.000000,-0.000000,0.000000,0.000437,0.000191,-0.000092,-0.007518,-0.000003,0.000003,0.000124,2.701818, 0.955719, 0.119556, -0.000443,0.000000, 0.000000, 0.000000, 0.775136, 0.631615, 0.012167, 0.000000, 0.000000, 0.000000
4.568884,0.000000,0.000000,0.000000,0.000000,0.000000,0.000000,-0.000000,0.000000,-0.003955,0.000417,-0.000205,-0.016317,-0.000003,0.000003,0.000113,2.701818, 0.955719, 0.119554, 0.004443,0.000000, 0.000000, 0.000000, 0.775136, 0.631615, 0.012166, 0.000000, 0.000000, 0.000000
4.583879,0.000000,0.000000,0.000000,0.000000,0.000000,0.000000,-0.000000,0.000000,-0.005457,0.000386,-0.000195,-0.014985,-0.000002,0.000003,0.000100,2.701818, 0.955719, 0.119552, 0.005624,0.000000, 0.000000, 0.000000, 0.775136, 0.631615, 0.012165, 0.000000, 0.000000, 0.000000
4.600733,0.000000,0.000000,0.000000,0.000000,0.000000,0.000000,-0.000000,0.000000,-0.006328,0.000386,-0.000195,-0.014985,-0.000002,0.000003,0.000100,2.701818, 0.955719, 0.119552, 0.006424,0.000000, 0.000000, 0.000000, 0.775136, 0.631615, 0.012165, 0.000000, 0.000000, 0.000000
4.626396,0.000000,0.000000,0.000000,0.000000,0.000000,0.000000,-0.000000,0.000000,-0.006219,0.001527,-0.000823,-0.058631,-0.000002,0.000002,0.000072,2.701818, 0.955719, 0.119549, 0.006207,0.000000, 0.000000, 0.000000, 0.775136, 0.631615, 0.012163, 0.000000, 0.000000, 0.000000
4.651461,0.000000,0.000000,0.000000,0.000000,0.000000,0.000000,-0.000000,0.000000,-0.007173,0.000276,-0.000164,-0.010430,-0.000001,0.000001,0.000042,2.701818, 0.955719, 0.119547, 0.007279,0.000000, 0.000000, 0.000000, 0.775136, 0.631615, 0.012160, 0.000000, 0.000000, 0.000000
4.666338,0.000000,0.000000,0.000000,0.000000,0.000000,0.000000,-0.000000,0.000000,-0.003004,0.000276,-0.000164,-0.010430,-0.000001,0.000001,0.000042,2.701818, 0.955719, 0.119547, 0.002541,0.000000, 0.000000, 0.000000, 0.775136, 0.631615, 0.012160, 0.000000, 0.000000, 0.000000
4.681484,0.000000,0.000000,0.000000,0.000000,0.000000,0.000000,-0.000000,0.000000,0.002712,0.000079,-0.000051,-0.002941,-0.000001,0.000001,0.000027,2.701818, 0.955719, 0.119546, -0.003347,0.000000, 0.000000, 0.000000, 0.775136, 0.631615, 0.012159, 0.000000, 0.000000, 0.000000
4.696464,0.000000,0.000000,0.000000,0.000000,0.000000,0.000000,-0.000000,0.000000,0.006030,0.000061,-0.000047,-0.002210,-0.000000,0.000000,0.000012,2.701818, 0.955719, 0.119546, -0.006398,0.000000, 0.000000, 0.000000, 0.775136, 0.631615, 0.012157, 0.000000, 0.000000, 0.000000
4.711620,0.000000,0.000000,0.000000,0.000000,0.000000,0.000000,-0.000000,0.000000,0.004638,0.000015,-0.000022,-0.000424,0.000000,0.000000,-0.000003,2.701818, 0.955719, 0.119546, -0.004483,0.000000, 0.000000, 0.000000, 0.775136, 0.631615, 0.012156, 0.000000, 0.000000, 0.000000
4.726595,0.000000,0.000000,0.000000,0.000000,0.000000,0.000000,-0.000000,0.000000,0.004499,0.000015,-0.000022,-0.000424,0.000000,0.000000,-0.000003,2.701818, 0.955719, 0.119546, -0.004483,0.000000, 0.000000, 0.000000, 0.775136, 0.631615, 0.012156, 0.000000, 0.000000, 0.000000
4.749382,0.000000,0.000000,0.000000,0.000000,0.000000,0.000000,-0.000000,0.000000,0.001869,-0.000012,-0.000002,0.000521,0.000000,-0.000000,-0.000017,2.701818, 0.955719, 0.119546, -0.001577,0.000000, 0.000000, 0.000000, 0.775136, 0.631615, 0.012154, 0.000000, 0.000000, 0.000000
4.771245,0.000000,0.000000,0.000000,0.000000,0.000000,0.000000,-0.000000,0.000000,0.000055,-0.000118,0.000039,0.004628,0.000001,-0.000001,-0.000041,2.701818, 0.955719, 0.119547, 0.000146,0.000000, 0.000000, 0.000000, 0.775136, 0.631615, 0.012150, 0.000000, 0.000000, 0.000000
4.786597,0.000000,0.000000,0.000000,0.000000,0.000000,0.000000,-0.000000,0.000000,-0.000868,-0.000120,0.000046,0.004650,0.000001,-0.000001,-0.000052,2.701818, 0.955719, 0.119548, 0.000971,0.000000, 0.000000, 0.000000, 0.775136, 0.631615, 0.012148, 0.000000, 0.000000, 0.000000
4.803083,0.000000,0.000000,0.000000,0.000000,0.000000,0.000000,-0.000000,0.000000,-0.007659,-0.000120,0.000046,0.004650,0.000001,-0.000001,-0.000052,2.701818, 0.955719, 0.119548, 0.008414,0.000000, 0.000000, 0.000000, 0.775136, 0.631615, 0.012148, 0.000000, 0.000000, 0.000000
4.848526,0.000000,0.000000,0.000000,0.000000,0.000000,0.000000,-0.000000,0.000000,0.000934,-0.000412,0.000186,0.015576,0.000002,-0.000002,-0.000078,2.701818, 0.955719, 0.119552, -0.001889,0.000000, 0.000000, 0.000000, 0.775136, 0.631615, 0.012144, 0.000000, 0.000000, 0.000000
4.863372,0.000000,0.000000,0.000000,0.000000,0.000000,0.000000,-0.000000,0.000000,-0.007168,-0.000412,0.000186,0.015576,0.000002,-0.000002,-0.000078,2.701818, 0.955719, 0.119552, 0.008068,0.000000, 0.000000, 0.000000, 0.775136, 0.631615, 0.012144, 0.000000, 0.000000, 0.000000
4.878930,0.000000,0.000000,0.000000,0.000000,0.000000,0.000000,-0.000000,0.000000,-0.007361,-0.000246,0.000114,0.009252,0.000002,-0.000002,-0.000085,2.701818, 0.955719, 0.119554, 0.007382,0.000000, 0.000000, 0.000000, 0.775136, 0.631615, 0.012142, 0.000000, 0.000000, 0.000000
4.893924,0.000000,0.000000,0.000000,0.000000,0.000000,0.000000,-0.000000,0.000000,-0.006606,-0.000235,0.000111,0.008749,0.000002,-0.000003,-0.000091,2.701818, 0.955719, 0.119556, 0.006522,0.000000, 0.000000, 0.000000, 0.775136, 0.631615, 0.012141, 0.000000, 0.000000, 0.000000
4.909340,0.000000,0.000000,0.000000,0.000000,0.000000,0.000000,-0.000000,0.000000,0.002063,-0.000248,0.000121,0.009181,0.000002,-0.000003,-0.000094,2.701818, 0.955719, 0.119558, -0.003026,0.000000, 0.000000, 0.000000, 0.775136, 0.631615, 0.012139, 0.000000, 0.000000, 0.000000
4.924628,0.000000,0.000000,0.000000,0.000000,0.000000,0.000000,-0.000000,0.000000,0.000993,-0.000248,0.000121,0.009181,0.000002,-0.000003,-0.000094,2.701818, 0.955719, 0.119558, -0.000875,0.000000, 0.000000, 0.000000, 0.775136, 0.631615, 0.012139, 0.000000, 0.000000, 0.000000
4.960156,0.000000,0.000000,0.000000,0.000000,0.000000,0.000000,-0.000000,0.000000,0.001514,-0.001789,0.000912,0.065395,0.000002,-0.000003,-0.000097,2.701818, 0.955719, 0.119561, -0.001572,0.000000, 0.000000, 0.000000, 0.775136, 0.631615, 0.012137, 0.000000, 0.000000, 0.000000
4.975060,0.000000,0.000000,0.000000,0.000000,0.000000,0.000000,-0.000000,0.000000,-0.001498,-0.000568,0.000294,0.020594,0.000002,-0.000003,-0.000097,2.701818, 0.955719, 0.119563, 0.001832,0.000000, 0.000000, 0.000000, 0.775136, 0.631615, 0.012137, 0.000000, 0.000000, 0.000000
4.989767,0.000000,0.000000,0.000000,0.000000,0.000000,0.000000,-0.000000,0.000000,-0.003211,-0.000299,0.000157,0.010760,0.000002,-0.000003,-0.000096,2.701818, 0.955719, 0.119565, 0.003401,0.000000, 0.000000, 0.000000, 0.775136, 0.631615, 0.012136, 0.000000, 0.000000, 0.000000
5.004681,0.000000,0.000000,0.000000,0.000000,0.000000,0.000000,-0.000000,0.000000,0.009988,-0.000299,0.000157,0.010760,0.000002,-0.000003,-0.000096,2.701818, 0.955719, 0.119565, -0.011455,0.000000, 0.000000, 0.000000, 0.775136, 0.631615, 0.012136, 0.000000, 0.000000, 0.000000
5.040222,0.000000,0.000000,0.000000,0.000000,0.000000,0.000000,-0.000000,0.000000,0.001471,-0.001600,0.000868,0.056567,0.000002,-0.000003,-0.000093,2.701818, 0.955719, 0.119569, -0.000524,0.000000, 0.000000, 0.000000, 0.775136, 0.631615, 0.012135, 0.000000, 0.000000, 0.000000
5.055145,0.000000,0.000000,0.000000,0.000000,0.000000,0.000000,-0.000000,0.000000,0.002620,-0.000310,0.000172,0.010871,0.000002,-0.000003,-0.000090,2.701818, 0.955719, 0.119571, -0.002747,0.000000, 0.000000, 0.000000, 0.775136, 0.631615, 0.012135, 0.000000, 0.000000, 0.000000
5.071129,0.000000,0.000000,0.000000,0.000000,0.000000,0.000000,-0.000000,0.000000,0.001930,-0.000243,0.000138,0.008421,0.000002,-0.000003,-0.000085,2.701818, 0.955719, 0.119573, -0.001853,0.000000, 0.000000, 0.000000, 0.775136, 0.631615, 0.012135, 0.000000, 0.000000, 0.000000
5.116503,0.000000,0.000000,0.000000,0.000000,0.000000,0.000000,-0.000000,0.000000,-0.002251,-0.001656,0.000980,0.055866,0.000002,-0.000003,-0.000074,2.701818, 0.955719, 0.119576, 0.002716,0.000000, 0.000000, 0.000000, 0.775136, 0.631615, 0.012135, 0.000000, 0.000000, 0.000000
5.132230,0.000000,0.000000,0.000000,0.000000,0.000000,0.000000,-0.000000,0.000000,-0.002615,-0.000270,0.000163,0.008956,0.000001,-0.000003,-0.000068,2.701818, 0.955719, 0.119577, 0.002655,0.000000, 0.000000, 0.000000, 0.775136, 0.631615, 0.012135, 0.000000, 0.000000, 0.000000
5.147147,0.000000,0.000000,0.000000,0.000000,0.000000,0.000000,-0.000000,0.000000,0.005858,-0.000196,0.000122,0.006406,0.000001,-0.000002,-0.000061,2.701818, 0.955719, 0.119578, -0.006800,0.000000, 0.000000, 0.000000, 0.775136, 0.631615, 0.012136, 0.000000, 0.000000, 0.000000
5.192617,0.000000,0.000000,0.000000,0.000000,0.000000,0.000000,-0.000000,0.000000,-0.001558,-0.000454,0.000296,0.014150,0.000001,-0.000002,-0.000049,2.701818, 0.955719, 0.119581, 0.002382,0.000000, 0.000000, 0.000000, 0.775136, 0.631615, 0.012137, 0.000000, 0.000000, 0.000000
5.207554,0.000000,0.000000,0.000000,0.000000,0.000000,0.000000,-0.000000,0.000000,-0.003730,-0.000258,0.000174,0.007840,0.000001,-0.000002,-0.000043,2.701818, 0.955719, 0.119581, 0.003971,0.000000, 0.000000, 0.000000, 0.775136, 0.631615, 0.012137, 0.000000, 0.000000, 0.000000
5.223471,0.000000,0.000000,0.000000,0.000000,0.000000,0.000000,-0.000000,0.000000,-0.006119,-0.000258,0.000174,0.007840,0.000001,-0.000002,-0.000043,2.701818, 0.955719, 0.119581, 0.006385,0.000000, 0.000000, 0.000000, 0.775136, 0.631615, 0.012137, 0.000000, 0.000000, 0.000000
5.239063,0.000000,0.000000,0.000000,0.000000,0.000000,0.000000,-0.000000,0.000000,-0.010344,-0.000132,0.000094,0.003883,0.000001,-0.000002,-0.000037,2.701818, 0.955719, 0.119582, 0.010814,0.000000, 0.000000, 0.000000, 0.775136, 0.631615, 0.012138, 0.000000, 0.000000, 0.000000
5.253672,0.000000,0.000000,0.000000,0.000000,0.000000,0.000000,-0.000000,0.000000,0.000035,-0.000132,0.000098,0.003683,0.000000,-0.000002,-0.000030,2.701818, 0.955719, 0.119583, -0.001189,0.000000, 0.000000, 0.000000, 0.775136, 0.631615, 0.012139, 0.000000, 0.000000, 0.000000
5.268519,0.000000,0.000000,0.000000,0.000000,0.000000,0.000000,-0.000000,0.000000,0.000336,-0.000099,0.000078,0.002556,0.000000,-0.000001,-0.000022,2.701818, 0.955719, 0.119583, -0.000369,0.000000, 0.000000, 0.000000, 0.775136, 0.631615, 0.012140, 0.000000, 0.000000, 0.000000
5.314433,0.000000,0.000000,0.000000,0.000000,0.000000,0.000000,-0.000000,0.000000,-0.000422,-0.000457,0.000447,0.008297,-0.000000,-0.000001,-0.000008,2.701818, 0.955719, 0.119584, 0.000506,0.000000, 0.000000, 0.000000, 0.775136, 0.631615, 0.012142, 0.000000, 0.000000, 0.000000
5.330084,0.000000,0.000000,0.000000,0.000000,0.000000,0.000000,-0.000000,0.000000,-0.000235,-0.000051,0.000065,0.000408,-0.000000,-0.000001,0.000001,2.701818, 0.955720, 0.119584, 0.000215,0.000000, 0.000000, 0.000000, 0.775136, 0.631615, 0.012143, 0.000000, 0.000000, 0.000000
5.345380,0.000000,0.000000,0.000000,0.000000,0.000000,0.000000,-0.000000,0.000000,0.003253,-0.000051,0.000065,0.000408,-0.000000,-0.000001,0.000001,2.701818, 0.955720, 0.119584, -0.003640,0.000000, 0.000000, 0.000000, 0.775136, 0.631615, 0.012143, 0.000000, 0.000000, 0.000000
5.360458,0.000000,0.000000,0.000000,0.000000,0.000000,0.000000,-0.000000,0.000000,0.003501,-0.000018,0.000040,-0.000542,-0.000000,-0.000001,0.000010,2.701818, 0.955720, 0.119584, -0.003529,0.000000, 0.000000, 0.000000, 0.775136, 0.631615, 0.012144, 0.000000, 0.000000, 0.000000
5.395840,0.000000,0.000000,0.000000,0.000000,0.000000,0.000000,-0.000000,0.000000,0.000129,0.000144,0.000147,-0.014257,-0.000001,-0.000000,0.000023,2.701818, 0.955720, 0.119583, 0.000246,0.000000, 0.000000, 0.000000, 0.775136, 0.631615, 0.012146, 0.000000, 0.000000, 0.000000
5.410773,0.000000,0.000000,0.000000,0.000000,0.000000,0.000000,-0.000000,0.000000,-0.002317,0.000047,0.000015,-0.003309,-0.000001,-0.000000,0.000029,2.701818, 0.955720, 0.119582, 0.002589,0.000000, 0.000000, 0.000000, 0.775136, 0.631615, 0.012147, 0.000000, 0.000000, 0.000000
5.426336,0.000000,0.000000,0.000000,0.000000,0.000000,0.000000,-0.000000,0.000000,-0.007701,0.000051,0.000003,-0.003057,-0.000001,0.000000,0.000034,2.701818, 0.955720, 0.119582, 0.008299,0.000000, 0.000000, 0.000000, 0.775136, 0.631615, 0.012149, 0.000000, 0.000000, 0.000000
5.472716,0.000000,0.000000,0.000000,0.000000,0.000000,0.000000,-0.000000,0.000000,-0.003323,0.000151,-0.000026,-0.007665,-0.000001,0.000000,0.000043,2.701818, 0.955720, 0.119580, 0.002837,0.000000, 0.000000, 0.000000, 0.775136, 0.631615, 0.012151, 0.000000, 0.000000, 0.000000
5.488475,0.000000,0.000000,0.000000,0.000000,0.000000,0.000000,-0.000000,0.000000,-0.003442,0.000151,-0.000026,-0.007665,-0.000001,0.000000,0.000043,2.701818, 0.955720, 0.119580, 0.003455,0.000000, 0.000000, 0.000000, 0.775136, 0.631615, 0.012151, 0.000000, 0.000000, 0.000000
5.505774,0.000000,0.000000,0.000000,0.000000,0.000000,0.000000,-0.000000,0.000000,-0.001325,0.000102,-0.000024,-0.004988,-0.000001,0.000001,0.000046,2.701818, 0.955720, 0.119579, 0.001090,0.000000, 0.000000, 0.000000, 0.775136, 0.631615, 0.012151, 0.000000, 0.000000, 0.000000
5.552992,0.000000,0.000000,0.000000,0.000000,0.000000,0.000000,-0.000000,0.000000,0.002409,0.000237,-0.000075,-0.010766,-0.000001,0.000001,0.000049,2.701818, 0.955720, 0.119576, -0.002824,0.000000, 0.000000, 0.000000, 0.775136, 0.631615, 0.012154, 0.000000, 0.000000, 0.000000
5.567798,0.000000,0.000000,0.000000,0.000000,0.000000,0.000000,-0.000000,0.000000,0.004055,0.000120,-0.000042,-0.005381,-0.000001,0.000001,0.000048,2.701818, 0.955720, 0.119575, -0.004238,0.000000, 0.000000, 0.000000, 0.775136, 0.631615, 0.012154, 0.000000, 0.000000, 0.000000
5.592833,0.000000,0.000000,0.000000,0.000000,0.000000,0.000000,-0.000000,0.000000,-0.001006,0.000120,-0.000042,-0.005381,-0.000001,0.000001,0.000048,2.701818, 0.955720, 0.119575, 0.001569,0.000000, 0.000000, 0.000000, 0.775136, 0.631615, 0.012154, 0.000000, 0.000000, 0.000000
5.628056,0.000000,0.000000,0.000000,0.000000,0.000000,0.000000,-0.000000,0.000000,0.001447,0.000369,-0.000142,-0.016022,-0.000001,0.000001,0.000043,2.701818, 0.955720, 0.119573, -0.001719,0.000000, 0.000000, 0.000000, 0.775136, 0.631615, 0.012155, 0.000000, 0.000000, 0.000000
5.642712,0.000000,0.000000,0.000000,0.000000,0.000000,0.000000,-0.000000,0.000000,-0.000915,0.000369,-0.000142,-0.016022,-0.000001,0.000001,0.000043,2.701818, 0.955720, 0.119573, 0.001177,0.000000, 0.000000, 0.000000, 0.775136, 0.631615, 0.012155, 0.000000, 0.000000, 0.000000
5.660163,0.000000,0.000000,0.000000,0.000000,0.000000,0.000000,-0.000000,0.000000,0.001255,0.000097,-0.000038,-0.004165,-0.000001,0.000001,0.000041,2.701818, 0.955720, 0.119572, -0.001496,0.000000, 0.000000, 0.000000, 0.775136, 0.631615, 0.012155, 0.000000, 0.000000, 0.000000
5.674998,0.000000,0.000000,0.000000,0.000000,0.000000,0.000000,-0.000000,0.000000,-0.009429,0.000091,-0.000036,-0.003894,-0.000001,0.000001,0.000039,2.701818, 0.955720, 0.119571, 0.010616,0.000000, 0.000000, 0.000000, 0.775136, 0.631615, 0.012155, 0.000000, 0.000000, 0.000000
5.689842,0.000000,0.000000,0.000000,0.000000,0.000000,0.000000,-0.000000,0.000000,-0.002314,0.000087,-0.000035,-0.003745,-0.000001,0.000001,0.000036,2.701818, 0.955720, 0.119570, 0.001523,0.000000, 0.000000, 0.000000, 0.775136, 0.631615, 0.012155, 0.000000, 0.000000, 0.000000
5.705058,0.000000,0.000000,0.000000,0.000000,0.000000,0.000000,-0.000000,0.000000,-0.011447,0.000087,-0.000035,-0.003745,-0.000001,0.000001,0.000036,2.701818, 0.955720, 0.119570, 0.012461,0.000000, 0.000000, 0.000000, 0.775136, 0.631615, 0.012155, 0.000000, 0.000000, 0.000000
5.740761,0.000000,0.000000,0.000000,0.000000,0.000000,0.000000,-0.000000,0.000000,-0.007756,0.000529,-0.000218,-0.023016,-0.000001,0.000001,0.000031,2.701818, 0.955720, 0.119569, 0.007346,0.000000, 0.000000, 0.000000, 0.775136, 0.631615, 0.012155, 0.000000, 0.000000, 0.000000
5.756373,0.000000,0.000000,0.000000,0.000000,0.000000,0.000000,-0.000000,0.000000,-0.009663,0.000134,-0.000056,-0.005864,-0.000001,0.000001,0.000027,2.701818, 0.955720, 0.119569, 0.009875,0.000000, 0.000000, 0.000000, 0.775136, 0.631615, 0.012155, 0.000000, 0.000000, 0.000000
5.771683,0.000000,0.000000,0.000000,0.000000,0.000000,0.000000,-0.000000,0.000000,-0.006438,0.000064,-0.000027,-0.002859,-0.000001,0.000000,0.000024,2.701818, 0.955720, 0.119568, 0.006080,0.000000, 0.000000, 0.000000, 0.775136, 0.631615, 0.012155, 0.000000, 0.000000, 0.000000
5.787753,0.000000,0.000000,0.000000,0.000000,0.000000,0.000000,-0.000000,0.000000,0.000272,0.000048,-0.000020,-0.002177,-0.000000,0.000000,0.000020,2.701818, 0.955720, 0.119568, -0.001018,0.000000, 0.000000, 0.000000, 0.775136, 0.631615, 0.012154, 0.000000, 0.000000, 0.000000
5.802584,0.000000,0.000000,0.000000,0.000000,0.000000,0.000000,-0.000000,0.000000,-0.003950,0.000048,-0.000020,-0.002177,-0.000000,0.000000,0.000020,2.701818, 0.955720, 0.119568, 0.004419,0.000000, 0.000000, 0.000000, 0.775136, 0.631615, 0.012154, 0.000000, 0.000000, 0.000000
5.817602,0.000000,0.000000,0.000000,0.000000,0.000000,0.000000,-0.000000,0.000000,-0.006298,0.000038,-0.000016,-0.001752,-0.000000,0.000000,0.000015,2.701818, 0.955720, 0.119567, 0.006558,0.000000, 0.000000, 0.000000, 0.775136, 0.631615, 0.012154, 0.000000, 0.000000, 0.000000
5.863199,0.000000,0.000000,0.000000,0.000000,0.000000,0.000000,-0.000000,0.000000,-0.000319,0.000070,-0.000027,-0.003909,-0.000000,0.000000,0.000006,2.701818, 0.955720, 0.119567, -0.000345,0.000000, 0.000000, 0.000000, 0.775136, 0.631615, 0.012153, 0.000000, 0.000000, 0.000000
5.878534,0.000000,0.000000,0.000000,0.000000,0.000000,0.000000,-0.000000,0.000000,-0.003060,0.000010,-0.000001,-0.001022,-0.000000,-0.000000,0.000002,2.701818, 0.955720, 0.119567, 0.003364,0.000000, 0.000000, 0.000000, 0.775136, 0.631615, 0.012152, 0.000000, 0.000000, 0.000000
5.894598,0.000000,0.000000,0.000000,0.000000,0.000000,0.000000,-0.000000,0.000000,0.001881,-0.000008,0.000005,0.000023,0.000000,-0.000000,-0.000002,2.701818, 0.955720, 0.119567, -0.002430,0.000000, 0.000000, 0.000000, 0.775136, 0.631615, 0.012152, 0.000000, 0.000000, 0.000000
5.909450,0.000000,0.000000,0.000000,0.000000,0.000000,0.000000,-0.000000,0.000000,-0.005681,-0.000008,0.000005,0.000023,0.000000,-0.000000,-0.000002,2.701818, 0.955720, 0.119567, 0.006521,0.000000, 0.000000, 0.000000, 0.775136, 0.631615, 0.012152, 0.000000, 0.000000, 0.000000
5.945842,0.000000,0.000000,0.000000,0.000000,0.000000,0.000000,-0.000000,0.000000,-0.004214,-0.000126,0.000065,0.004110,0.000000,-0.000001,-0.000015,2.701818, 0.955720, 0.119567, 0.004051,0.000000, 0.000000, 0.000000, 0.775136, 0.631615, 0.012149, 0.000000, 0.000000, 0.000000
5.960605,0.000000,0.000000,0.000000,0.000000,0.000000,0.000000,-0.000000,0.000000,-0.000094,-0.000126,0.000065,0.004110,0.000000,-0.000001,-0.000015,2.701818, 0.955720, 0.119567, -0.000364,0.000000, 0.000000, 0.000000, 0.775136, 0.631615, 0.012149, 0.000000, 0.000000, 0.000000
5.975988,0.000000,0.000000,0.000000,0.000000,0.000000,0.000000,-0.000000,0.000000,0.000426,-0.000049,0.000025,0.001643,0.000000,-0.000001,-0.000018,2.701818, 0.955720, 0.119568, -0.000484,0.000000, 0.000000, 0.000000, 0.775136, 0.631615, 0.012149, 0.000000, 0.000000, 0.000000
6.022003,0.000000,0.000000,0.000000,0.000000,0.000000,0.000000,-0.000000,0.000000,-0.000720,-0.000487,0.000253,0.016715,0.000001,-0.000001,-0.000024,2.701818, 0.955720, 0.119569, 0.000847,0.000000, 0.000000, 0.000000, 0.775136, 0.631615, 0.012147, 0.000000, 0.000000, 0.000000
6.037168,0.000000,0.000000,0.000000,0.000000,0.000000,0.000000,-0.000000,0.000000,-0.000385,-0.000084,0.000044,0.002877,0.000001,-0.000001,-0.000026,2.701818, 0.955720, 0.119569, 0.000348,0.000000, 0.000000, 0.000000, 0.775136, 0.631615, 0.012146, 0.000000, 0.000000, 0.000000
6.052166,0.000000,0.000000,0.000000,0.000000,0.000000,0.000000,-0.000000,0.000000,-0.005797,-0.000084,0.000044,0.002877,0.000001,-0.000001,-0.000026,2.701818, 0.955720, 0.119569, 0.006398,0.000000, 0.000000, 0.000000, 0.775136, 0.631615, 0.012146, 0.000000, 0.000000, 0.000000
6.067022,0.000000,0.000000,0.000000,0.000000,0.000000,0.000000,-0.000000,0.000000,0.005053,-0.000069,0.000038,0.002380,0.000001,-0.000001,-0.000027,2.701818, 0.955720, 0.119570, -0.006258,0.000000, 0.000000, 0.000000, 0.775136, 0.631615, 0.012146, 0.000000, 0.000000, 0.000000
6.081872,0.000000,0.000000,0.000000,0.000000,0.000000,0.000000,-0.000000,0.000000,-0.000841,-0.000091,0.000050,0.003085,0.000001,-0.000001,-0.000028,2.701818, 0.955720, 0.119570, 0.001496,0.000000, 0.000000, 0.000000, 0.775136, 0.631615, 0.012145, 0.000000, 0.000000, 0.000000
6.096815,0.000000,0.000000,0.000000,0.000000,0.000000,0.000000,-0.000000,0.000000,-0.003396,-0.000082,0.000046,0.002761,0.000001,-0.000001,-0.000028,2.701818, 0.955720, 0.119571, 0.003680,0.000000, 0.000000, 0.000000, 0.775136, 0.631615, 0.012144, 0.000000, 0.000000, 0.000000
6.111828,0.000000,0.000000,0.000000,0.000000,0.000000,0.000000,-0.000000,0.000000,-0.001898,-0.000083,0.000047,0.002758,0.000001,-0.000001,-0.000028,2.701818, 0.955720, 0.119571, 0.001732,0.000000, 0.000000, 0.000000, 0.775136, 0.631615, 0.012144, 0.000000, 0.000000, 0.000000
6.127029,0.000000,0.000000,0.000000,0.000000,0.000000,0.000000,-0.000000,0.000000,-0.001908,-0.000083,0.000047,0.002758,0.000001,-0.000001,-0.000028,2.701818, 0.955720, 0.119571, 0.001909,0.000000, 0.000000, 0.000000, 0.775136, 0.631615, 0.012144, 0.000000, 0.000000, 0.000000
6.142236,0.000000,0.000000,0.000000,0.000000,0.000000,0.000000,-0.000000,0.000000,-0.001426,-0.000082,0.000048,0.002707,0.000001,-0.000001,-0.000027,2.701818, 0.955720, 0.119572, 0.001372,0.000000, 0.000000, 0.000000, 0.775136, 0.631615, 0.012144, 0.000000, 0.000000, 0.000000
6.156924,0.000000,0.000000,0.000000,0.000000,0.000000,0.000000,-0.000000,0.000000,0.002322,-0.000082,0.000048,0.002686,0.000001,-0.000001,-0.000027,2.701818, 0.955720, 0.119572, -0.002738,0.000000, 0.000000, 0.000000, 0.775136, 0.631615, 0.012143, 0.000000, 0.000000, 0.000000
6.172284,0.000000,0.000000,0.000000,0.000000,0.000000,0.000000,-0.000000,0.000000,0.005982,-0.000081,0.000048,0.002620,0.000001,-0.000001,-0.000026,2.701818, 0.955720, 0.119573, -0.006389,0.000000, 0.000000, 0.000000, 0.775136, 0.631615, 0.012143, 0.000000, 0.000000, 0.000000
6.187194,0.000000,0.000000,0.000000,0.000000,0.000000,0.000000,-0.000000,0.000000,0.000338,-0.000081,0.000048,0.002620,0.000001,-0.000001,-0.000026,2.701818, 0.955720, 0.119573, 0.000289,0.000000, 0.000000, 0.000000, 0.775136, 0.631615, 0.012143, 0.000000, 0.000000, 0.000000
6.222850,0.000000,0.000000,0.000000,0.000000,0.000000,0.000000,-0.000000,0.000000,-0.000798,-0.000348,0.000214,0.011105,0.000001,-0.000001,-0.000025,2.701818, 0.955720, 0.119574, 0.000925,0.000000, 0.000000, 0.000000, 0.775136, 0.631615, 0.012143, 0.000000, 0.000000, 0.000000
6.238214,0.000000,0.000000,0.000000,0.000000,0.000000,0.000000,-0.000000,0.000000,-0.009477,-0.000100,0.000062,0.003175,0.000001,-0.000001,-0.000024,2.701818, 0.955720, 0.119575, 0.010441,0.000000, 0.000000, 0.000000, 0.775136, 0.631615, 0.012143, 0.000000, 0.000000, 0.000000
6.253361,0.000000,0.000000,0.000000,0.000000,0.000000,0.000000,-0.000000,0.000000,0.002942,-0.000075,0.000048,0.002357,0.000000,-0.000001,-0.000023,2.701818, 0.955720, 0.119575, -0.004322,0.000000, 0.000000, 0.000000, 0.775136, 0.631615, 0.012143, 0.000000, 0.000000, 0.000000
6.268965,0.000000,0.000000,0.000000,0.000000,0.000000,0.000000,-0.000000,0.000000,0.000256,-0.000075,0.000048,0.002357,0.000000,-0.000001,-0.000023,2.701818, 0.955720, 0.119575, 0.000043,0.000000, 0.000000, 0.000000, 0.775136, 0.631615, 0.012143, 0.000000, 0.000000, 0.000000
6.283807,0.000000,0.000000,0.000000,0.000000,0.000000,0.000000,-0.000000,0.000000,0.006734,-0.000073,0.000047,0.002243,0.000000,-0.000001,-0.000022,2.701818, 0.955720, 0.119575, -0.007454,0.000000, 0.000000, 0.000000, 0.775136, 0.631615, 0.012143, 0.000000, 0.000000, 0.000000
6.298803,0.000000,0.000000,0.000000,0.000000,0.000000,0.000000,-0.000000,0.000000,-0.000212,-0.000070,0.000046,0.002137,0.000000,-0.000001,-0.000021,2.701818, 0.955720, 0.119576, 0.000984,0.000000, 0.000000, 0.000000, 0.775136, 0.631615, 0.012143, 0.000000, 0.000000, 0.000000
6.334443,0.000000,0.000000,0.000000,0.000000,0.000000,0.000000,-0.000000,0.000000,-0.002498,-0.000467,0.000317,0.013569,0.000000,-0.000001,-0.000018,2.701818, 0.955720, 0.119577, 0.002752,0.000000, 0.000000, 0.000000, 0.775136, 0.631615, 0.012143, 0.000000, 0.000000, 0.000000
6.349871,0.000000,0.000000,0.000000,0.000000,0.000000,0.000000,-0.000000,0.000000,0.007010,-0.000081,0.000056,0.002301,0.000000,-0.000001,-0.000017,2.701818, 0.955720, 0.119577, -0.008066,0.000000, 0.000000, 0.000000, 0.775136, 0.631615, 0.012143, 0.000000, 0.000000, 0.000000
6.365844,0.000000,0.000000,0.000000,0.000000,0.000000,0.000000,-0.000000,0.000000,-0.008102,-0.000081,0.000056,0.002301,0.000000,-0.000001,-0.000017,2.701818, 0.955720, 0.119577, 0.009781,0.000000, 0.000000, 0.000000, 0.775136, 0.631615, 0.012143, 0.000000, 0.000000, 0.000000
6.380997,0.000000,0.000000,0.000000,0.000000,0.000000,0.000000,-0.000000,0.000000,0.003067,-0.000056,0.000041,0.001531,0.000000,-0.000001,-0.000014,2.701818, 0.955720, 0.119577, -0.004308,0.000000, 0.000000, 0.000000, 0.775136, 0.631615, 0.012144, 0.000000, 0.000000, 0.000000
6.416833,0.000000,0.000000,0.000000,0.000000,0.000000,0.000000,-0.000000,0.000000,0.001599,-0.000307,0.000258,0.007105,0.000000,-0.000001,-0.000008,2.701818, 0.955720, 0.119578, -0.001436,0.000000, 0.000000, 0.000000, 0.775136, 0.631615, 0.012145, 0.000000, 0.000000, 0.000000
6.432087,0.000000,0.000000,0.000000,0.000000,0.000000,0.000000,-0.000000,0.000000,0.004270,-0.000043,0.000040,0.000837,0.000000,-0.000001,-0.000005,2.701818, 0.955720, 0.119578, -0.004567,0.000000, 0.000000, 0.000000, 0.775136, 0.631615, 0.012145, 0.000000, 0.000000, 0.000000
6.449103,0.000000,0.000000,0.000000,0.000000,0.000000,0.000000,-0.000000,0.000000,-0.001154,-0.000024,0.000025,0.000319,-0.000000,-0.000000,-0.000002,2.701818, 0.955720, 0.119578, 0.001757,0.000000, 0.000000, 0.000000, 0.775136, 0.631615, 0.012146, 0.000000, 0.000000, 0.000000
6.463850,0.000000,0.000000,0.000000,0.000000,0.000000,0.000000,-0.000000,0.000000,-0.000826,-0.000021,0.000028,0.000043,-0.000000,-0.000000,0.000001,2.701818, 0.955720, 0.119578, 0.000790,0.000000, 0.000000, 0.000000, 0.775136, 0.631615, 0.012146, 0.000000, 0.000000, 0.000000
6.478710,0.000000,0.000000,0.000000,0.000000,0.000000,0.000000,-0.000000,0.000000,-0.006787,-0.000021,0.000028,0.000043,-0.000000,-0.000000,0.000001,2.701818, 0.955720, 0.119578, 0.007449,0.000000, 0.000000, 0.000000, 0.775136, 0.631615, 0.012146, 0.000000, 0.000000, 0.000000
6.493472,0.000000,0.000000,0.000000,0.000000,0.000000,0.000000,-0.000000,0.000000,0.008916,-0.000010,0.000020,-0.000277,-0.000000,-0.000000,0.000004,2.701818, 0.955720, 0.119578, -0.010661,0.000000, 0.000000, 0.000000, 0.775136, 0.631615, 0.012147, 0.000000, 0.000000, 0.000000
6.508537,0.000000,0.000000,0.000000,0.000000,0.000000,0.000000,-0.000000,0.000000,0.004810,-0.000003,0.000017,-0.000591,-0.000000,-0.000000,0.000007,2.701818, 0.955720, 0.119578, -0.004354,0.000000, 0.000000, 0.000000, 0.775136, 0.631615, 0.012147, 0.000000, 0.000000, 0.000000
6.523472,0.000000,0.000000,0.000000,0.000000,0.000000,0.000000,-0.000000,0.000000,-0.001850,-0.000003,0.000017,-0.000591,-0.000000,-0.000000,0.000007,2.701818, 0.955720, 0.119578, 0.002590,0.000000, 0.000000, 0.000000, 0.775136, 0.631615, 0.012147, 0.000000, 0.000000, 0.000000
6.538381,0.000000,0.000000,0.000000,0.000000,0.000000,0.000000,-0.000000,0.000000,-0.003441,0.000005,0.000013,-0.000865,-0.000000,-0.000000,0.000010,2.701818, 0.955720, 0.119577, 0.003618,0.000000, 0.000000, 0.000000, 0.775136, 0.631615, 0.012148, 0.000000, 0.000000, 0.000000
6.574489,0.000000,0.000000,0.000000,0.000000,0.000000,0.000000,-0.000000,0.000000,0.003428,0.000054,0.000017,-0.003957,-0.000000,-0.000000,0.000016,2.701818, 0.955720, 0.119577, -0.004192,0.000000, 0.000000, 0.000000, 0.775136, 0.631615, 0.012149, 0.000000, 0.000000, 0.000000
6.589222,0.000000,0.000000,0.000000,0.000000,0.000000,0.000000,-0.000000,0.000000,0.001349,0.000054,0.000017,-0.003957,-0.000000,-0.000000,0.000016,2.701818, 0.955720, 0.119577, -0.001118,0.000000, 0.000000, 0.000000, 0.775136, 0.631615, 0.012149, 0.000000, 0.000000, 0.000000
6.604243,0.000000,0.000000,0.000000,0.000000,0.000000,0.000000,-0.000000,0.000000,-0.005425,0.000025,0.000003,-0.001662,-0.000000,0.000000,0.000017,2.701818, 0.955720, 0.119577, 0.006177,0.000000, 0.000000, 0.000000, 0.775136, 0.631615, 0.012150, 0.000000, 0.000000, 0.000000
6.649466,0.000000,0.000000,0.000000,0.000000,0.000000,0.000000,-0.000000,0.000000,-0.007925,0.000107,-0.000007,-0.006234,-0.000001,0.000000,0.000020,2.701818, 0.955720, 0.119575, 0.008203,0.000000, 0.000000, 0.000000, 0.775136, 0.631615, 0.012152, 0.000000, 0.000000, 0.000000
6.664286,0.000000,0.000000,0.000000,0.000000,0.000000,0.000000,-0.000000,0.000000,0.001837,0.000107,-0.000007,-0.006234,-0.000001,0.000000,0.000020,2.701818, 0.955720, 0.119575, -0.002922,0.000000, 0.000000, 0.000000, 0.775136, 0.631615, 0.012152, 0.000000, 0.000000, 0.000000
6.679226,0.000000,0.000000,0.000000,0.000000,0.000000,0.000000,-0.000000,0.000000,-0.005179,0.000035,-0.000003,-0.001975,-0.000001,0.000000,0.000020,2.701818, 0.955720, 0.119575, 0.002362,0.000000, 0.000000, 0.000000, 0.775136, 0.631615, 0.012152, 0.000000, 0.000000, 0.000000
6.694111,0.000000,0.000000,0.000000,0.000000,0.000000,0.000000,-0.000000,0.000000,-0.002644,0.000035,-0.000003,-0.001975,-0.000001,0.000000,0.000020,2.701818, 0.955720, 0.119575, 0.002362,0.000000, 0.000000, 0.000000, 0.775136, 0.631615, 0.012152, 0.000000, 0.000000, 0.000000
6.729691,0.000000,0.000000,0.000000,0.000000,0.000000,0.000000,-0.000000,0.000000,0.001705,0.000115,-0.000020,-0.006244,-0.000001,0.000000,0.000021,2.701818, 0.955720, 0.119574, -0.002188,0.000000, 0.000000, 0.000000, 0.775136, 0.631615, 0.012153, 0.000000, 0.000000, 0.000000
6.744625,0.000000,0.000000,0.000000,0.000000,0.000000,0.000000,-0.000000,0.000000,0.000403,0.000115,-0.000020,-0.006244,-0.000001,0.000000,0.000021,2.701818, 0.955720, 0.119574, -0.000259,0.000000, 0.000000, 0.000000, 0.775136, 0.631615, 0.012153, 0.000000, 0.000000, 0.000000
6.759643,0.000000,0.000000,0.000000,0.000000,0.000000,0.000000,-0.000000,0.000000,-0.009584,0.000040,-0.000007,-0.002124,-0.000001,0.000000,0.000021,2.701818, 0.955720, 0.119573, 0.010694,0.000000, 0.000000, 0.000000, 0.775136, 0.631615, 0.012154, 0.000000, 0.000000, 0.000000
6.784554,0.000000,0.000000,0.000000,0.000000,0.000000,0.000000,-0.000000,0.000000,0.001415,0.000039,-0.000007,-0.002059,-0.000001,0.000000,0.000021,2.701818, 0.955720, 0.119573, -0.002637,0.000000, 0.000000, 0.000000, 0.775136, 0.631615, 0.012154, 0.000000, 0.000000, 0.000000
6.800746,0.000000,0.000000,0.000000,0.000000,0.000000,0.000000,-0.000000,0.000000,-0.006620,0.000038,-0.000008,-0.002026,-0.000001,0.000000,0.000020,2.701818, 0.955720, 0.119573, 0.007513,0.000000, 0.000000, 0.000000, 0.775136, 0.631615, 0.012154, 0.000000, 0.000000, 0.000000
6.815663,0.000000,0.000000,0.000000,0.000000,0.000000,0.000000,-0.000000,0.000000,-0.000431,0.000037,-0.000008,-0.001979,-0.000000,0.000000,0.000020,2.701818, 0.955720, 0.119572, -0.000257,0.000000, 0.000000, 0.000000, 0.775136, 0.631615, 0.012154, 0.000000, 0.000000, 0.000000
6.830617,0.000000,0.000000,0.000000,0.000000,0.000000,0.000000,-0.000000,0.000000,0.001631,0.000036,-0.000008,-0.001918,-0.000000,0.000000,0.000019,2.701818, 0.955720, 0.119572, -0.001860,0.000000, 0.000000, 0.000000, 0.775136, 0.631615, 0.012154, 0.000000, 0.000000, 0.000000
6.846180,0.000000,0.000000,0.000000,0.000000,0.000000,0.000000,-0.000000,0.000000,0.000529,0.000036,-0.000008,-0.001918,-0.000000,0.000000,0.000019,2.701818, 0.955720, 0.119572, -0.000407,0.000000, 0.000000, 0.000000, 0.775136, 0.631615, 0.012154, 0.000000, 0.000000, 0.000000
6.861139,0.000000,0.000000,0.000000,0.000000,0.000000,0.000000,-0.000000,0.000000,-0.007607,0.000034,-0.000007,-0.001803,-0.000000,0.000000,0.000018,2.701818, 0.955720, 0.119571, 0.008511,0.000000, 0.000000, 0.000000, 0.775136, 0.631615, 0.012155, 0.000000, 0.000000, 0.000000
6.897276,0.000000,0.000000,0.000000,0.000000,0.000000,0.000000,-0.000000,0.000000,-0.006673,0.000131,-0.000027,-0.007005,-0.000000,0.000000,0.000016,2.701818, 0.955720, 0.119571, 0.006569,0.000000, 0.000000, 0.000000, 0.775136, 0.631615, 0.012154, 0.000000, 0.000000, 0.000000
6.912118,0.000000,0.000000,0.000000,0.000000,0.000000,0.000000,-0.000000,0.000000,0.007110,0.000041,-0.000008,-0.002246,-0.000000,0.000000,0.000015,2.701818, 0.955720, 0.119570, -0.008642,0.000000, 0.000000, 0.000000, 0.775136, 0.631615, 0.012154, 0.000000, 0.000000, 0.000000
6.927922,0.000000,0.000000,0.000000,0.000000,0.000000,0.000000,-0.000000,0.000000,-0.007768,0.000025,-0.000004,-0.001377,-0.000000,0.000000,0.000013,2.701818, 0.955720, 0.119570, 0.009422,0.000000, 0.000000, 0.000000, 0.775136, 0.631615, 0.012154, 0.000000, 0.000000, 0.000000
6.942837,0.000000,0.000000,0.000000,0.000000,0.000000,0.000000,-0.000000,0.000000,-0.005461,0.000025,-0.000004,-0.001377,-0.000000,0.000000,0.000013,2.701818, 0.955720, 0.119570, 0.005205,0.000000, 0.000000, 0.000000, 0.775136, 0.631615, 0.012154, 0.000000, 0.000000, 0.000000
6.978288,0.000000,0.000000,0.000000,0.000000,0.000000,0.000000,-0.000000,0.000000,0.004835,0.000138,-0.000015,-0.008378,-0.000000,0.000000,0.000010,2.701818, 0.955720, 0.119570, -0.005979,0.000000, 0.000000, 0.000000, 0.775136, 0.631615, 0.012153, 0.000000, 0.000000, 0.000000
6.993098,0.000000,0.000000,0.000000,0.000000,0.000000,0.000000,-0.000000,0.000000,-0.005944,0.000018,-0.000000,-0.001239,-0.000000,-0.000000,0.000008,2.701818, 0.955720, 0.119570, 0.007142,0.000000, 0.000000, 0.000000, 0.775136, 0.631615, 0.012153, 0.000000, 0.000000, 0.000000
7.007901,0.000000,0.000000,0.000000,0.000000,0.000000,0.000000,-0.000000,0.000000,-0.005823,0.000018,-0.000000,-0.001239,-0.000000,-0.000000,0.000008,2.701818, 0.955720, 0.119570, 0.005809,0.000000, 0.000000, 0.000000, 0.775136, 0.631615, 0.012153, 0.000000, 0.000000, 0.000000
7.022938,0.000000,0.000000,0.000000,0.000000,0.000000,0.000000,-0.000000,0.000000,-0.000767,0.000008,0.000002,-0.000691,-0.000000,-0.000000,0.000006,2.701818, 0.955720, 0.119569, 0.000205,0.000000, 0.000000, 0.000000, 0.775136, 0.631615, 0.012152, 0.000000, 0.000000, 0.000000
7.069798,0.000000,0.000000,0.000000,0.000000,0.000000,0.000000,-0.000000,0.000000,-0.001503,-0.000027,0.000031,-0.000211,0.000000,-0.000000,-0.000000,2.701818, 0.955720, 0.119569, 0.001585,0.000000, 0.000000, 0.000000, 0.775136, 0.631615, 0.012150, 0.000000, 0.000000, 0.000000
7.084964,0.000000,0.000000,0.000000,0.000000,0.000000,0.000000,-0.000000,0.000000,0.006195,-0.000027,0.000031,-0.000211,0.000000,-0.000000,-0.000000,2.701818, 0.955720, 0.119569, -0.007050,0.000000, 0.000000, 0.000000, 0.775136, 0.631615, 0.012150, 0.000000, 0.000000, 0.000000
7.099802,0.000000,0.000000,0.000000,0.000000,0.000000,0.000000,-0.000000,0.000000,0.004501,-0.000013,0.000011,0.000145,0.000000,-0.000000,-0.000002,2.701818, 0.955720, 0.119569, -0.004313,0.000000, 0.000000, 0.000000, 0.775136, 0.631615, 0.012150, 0.000000, 0.000000, 0.000000
7.114675,0.000000,0.000000,0.000000,0.000000,0.000000,0.000000,-0.000000,0.000000,0.000516,-0.000015,0.000012,0.000278,0.000000,-0.000000,-0.000004,2.701818, 0.955720, 0.119569, -0.000073,0.000000, 0.000000, 0.000000, 0.775136, 0.631615, 0.012149, 0.000000, 0.000000, 0.000000
7.129577,0.000000,0.000000,0.000000,0.000000,0.000000,0.000000,-0.000000,0.000000,0.000519,-0.000024,0.000018,0.000557,0.000000,-0.000000,-0.000005,2.701818, 0.955720, 0.119569, -0.000519,0.000000, 0.000000, 0.000000, 0.775136, 0.631615, 0.012148, 0.000000, 0.000000, 0.000000
7.144437,0.000000,0.000000,0.000000,0.000000,0.000000,0.000000,-0.000000,0.000000,0.003624,-0.000024,0.000018,0.000557,0.000000,-0.000000,-0.000005,2.701818, 0.955720, 0.119569, -0.003969,0.000000, 0.000000, 0.000000, 0.775136, 0.631615, 0.012148, 0.000000, 0.000000, 0.000000
7.159242,0.000000,0.000000,0.000000,0.000000,0.000000,0.000000,-0.000000,0.000000,0.002403,-0.000022,0.000015,0.000557,0.000000,-0.000000,-0.000007,2.701818, 0.955720, 0.119570, -0.002267,0.000000, 0.000000, 0.000000, 0.775136, 0.631615, 0.012147, 0.000000, 0.000000, 0.000000
7.174282,0.000000,0.000000,0.000000,0.000000,0.000000,0.000000,-0.000000,0.000000,-0.003838,-0.000033,0.000021,0.000881,0.000000,-0.000000,-0.000009,2.701818, 0.955720, 0.119570, 0.004532,0.000000, 0.000000, 0.000000, 0.775136, 0.631615, 0.012146, 0.000000, 0.000000, 0.000000
7.189641,0.000000,0.000000,0.000000,0.000000,0.000000,0.000000,-0.000000,0.000000,-0.003602,-0.000033,0.000021,0.000881,0.000000,-0.000000,-0.000009,2.701818, 0.955720, 0.119570, 0.003575,0.000000, 0.000000, 0.000000, 0.775136, 0.631615, 0.012146, 0.000000, 0.000000, 0.000000
7.237941,0.000000,0.000000,0.000000,0.000000,0.000000,0.000000,-0.000000,0.000000,0.005179,-0.000129,0.000081,0.003844,0.000000,-0.000000,-0.000012,2.701818, 0.955720, 0.119570, -0.006154,0.000000, 0.000000, 0.000000, 0.775136, 0.631615, 0.012144, 0.000000, 0.000000, 0.000000
7.253141,0.000000,0.000000,0.000000,0.000000,0.000000,0.000000,-0.000000,0.000000,0.000147,-0.000040,0.000025,0.001190,0.000000,-0.000001,-0.000012,2.701818, 0.955720, 0.119571, 0.000412,0.000000, 0.000000, 0.000000, 0.775136, 0.631615, 0.012143, 0.000000, 0.000000, 0.000000
7.267954,0.000000,0.000000,0.000000,0.000000,0.000000,0.000000,-0.000000,0.000000,0.003511,-0.000041,0.000026,0.001233,0.000000,-0.000001,-0.000013,2.701818, 0.955720, 0.119571, -0.003885,0.000000, 0.000000, 0.000000, 0.775136, 0.631615, 0.012142, 0.000000, 0.000000, 0.000000
7.313617,0.000000,0.000000,0.000000,0.000000,0.000000,0.000000,-0.000000,0.000000,-0.001349,-0.000272,0.000173,0.008188,0.000000,-0.000001,-0.000013,2.701818, 0.955720, 0.119571, 0.001889,0.000000, 0.000000, 0.000000, 0.775136, 0.631615, 0.012141, 0.000000, 0.000000, 0.000000
7.330089,0.000000,0.000000,0.000000,0.000000,0.000000,0.000000,-0.000000,0.000000,0.004620,-0.000056,0.000036,0.001667,0.000000,-0.000001,-0.000013,2.701818, 0.955720, 0.119572, -0.005283,0.000000, 0.000000, 0.000000, 0.775136, 0.631615, 0.012141, 0.000000, 0.000000, 0.000000
7.344943,0.000000,0.000000,0.000000,0.000000,0.000000,0.000000,-0.000000,0.000000,-0.004927,-0.000043,0.000028,0.001279,0.000000,-0.000001,-0.000013,2.701818, 0.955720, 0.119572, 0.005987,0.000000, 0.000000, 0.000000, 0.775136, 0.631615, 0.012140, 0.000000, 0.000000, 0.000000
7.359840,0.000000,0.000000,0.000000,0.000000,0.000000,0.000000,-0.000000,0.000000,0.003355,-0.000043,0.000028,0.001279,0.000000,-0.000001,-0.000013,2.701818, 0.955720, 0.119572, -0.004275,0.000000, 0.000000, 0.000000, 0.775136, 0.631615, 0.012140, 0.000000, 0.000000, 0.000000
7.395136,0.000000,0.000000,0.000000,0.000000,0.000000,0.000000,-0.000000,0.000000,0.009235,-0.000270,0.000177,0.007803,0.000000,-0.000001,-0.000013,2.701818, 0.955720, 0.119572, -0.009889,0.000000, 0.000000, 0.000000, 0.775136, 0.631615, 0.012139, 0.000000, 0.000000, 0.000000
7.410716,0.000000,0.000000,0.000000,0.000000,0.000000,0.000000,-0.000000,0.000000,-0.002063,-0.000052,0.000034,0.001474,0.000000,-0.000001,-0.000012,2.701818, 0.955720, 0.119573, 0.003318,0.000000, 0.000000, 0.000000, 0.775136, 0.631615, 0.012139, 0.000000, 0.000000, 0.000000
7.425778,0.000000,0.000000,0.000000,0.000000,0.000000,0.000000,-0.000000,0.000000,0.001442,-0.000052,0.000034,0.001474,0.000000,-0.000001,-0.000012,2.701818, 0.955720, 0.119573, -0.001832,0.000000, 0.000000, 0.000000, 0.775136, 0.631615, 0.012139, 0.000000, 0.000000, 0.000000
7.441406,0.000000,0.000000,0.000000,0.000000,0.000000,0.000000,-0.000000,0.000000,0.002196,-0.000043,0.000029,0.001196,0.000000,-0.000001,-0.000012,2.701818, 0.955720, 0.119573, -0.002280,0.000000, 0.000000, 0.000000, 0.775136, 0.631615, 0.012139, 0.000000, 0.000000, 0.000000
7.487376,0.000000,0.000000,0.000000,0.000000,0.000000,0.000000,-0.000000,0.000000,0.000509,-0.000114,0.000082,0.002922,0.000000,-0.000001,-0.000010,2.701818, 0.955720, 0.119574, -0.000321,0.000000, 0.000000, 0.000000, 0.775136, 0.631615, 0.012139, 0.000000, 0.000000, 0.000000
7.502266,0.000000,0.000000,0.000000,0.000000,0.000000,0.000000,-0.000000,0.000000,-0.000523,-0.000114,0.000082,0.002922,0.000000,-0.000001,-0.000010,2.701818, 0.955720, 0.119574, 0.000637,0.000000, 0.000000, 0.000000, 0.775136, 0.631615, 0.012139, 0.000000, 0.000000, 0.000000
7.517677,0.000000,0.000000,0.000000,0.000000,0.000000,0.000000,-0.000000,0.000000,0.003291,-0.000045,0.000034,0.001121,0.000000,-0.000001,-0.000009,2.701818, 0.955720, 0.119574, -0.003715,0.000000, 0.000000, 0.000000, 0.775136, 0.631615, 0.012139, 0.000000, 0.000000, 0.000000
7.533426,0.000000,0.000000,0.000000,0.000000,0.000000,0.000000,-0.000000,0.000000,-0.002168,-0.000036,0.000028,0.000861,0.000000,-0.000001,-0.000008,2.701818, 0.955720, 0.119574, 0.002775,0.000000, 0.000000, 0.000000, 0.775136, 0.631615, 0.012140, 0.000000, 0.000000, 0.000000
7.548554,0.000000,0.000000,0.000000,0.000000,0.000000,0.000000,-0.000000,0.000000,0.005229,-0.000035,0.000028,0.000786,0.000000,-0.000001,-0.000007,2.701818, 0.955720, 0.119574, -0.006051,0.000000, 0.000000, 0.000000, 0.775136, 0.631615, 0.012140, 0.000000, 0.000000, 0.000000
7.564456,0.000000,0.000000,0.000000,0.000000,0.000000,0.000000,-0.000000,0.000000,0.003400,-0.000035,0.000028,0.000786,0.000000,-0.000001,-0.000007,2.701818, 0.955720, 0.119574, -0.003197,0.000000, 0.000000, 0.000000, 0.775136, 0.631615, 0.012140, 0.000000, 0.000000, 0.000000
7.599824,0.000000,0.000000,0.000000,0.000000,0.000000,0.000000,-0.000000,0.000000,-0.000962,-0.000582,0.000505,0.011111,0.000000,-0.000001,-0.000005,2.701818, 0.955720, 0.119574, 0.001447,0.000000, 0.000000, 0.000000, 0.775136, 0.631615, 0.012141, 0.000000, 0.000000, 0.000000
7.614875,0.000000,0.000000,0.000000,0.000000,0.000000,0.000000,-0.000000,0.000000,0.004182,-0.000036,0.000032,0.000607,0.000000,-0.000001,-0.000004,2.701818, 0.955720, 0.119574, -0.004754,0.000000, 0.000000, 0.000000, 0.775136, 0.631615, 0.012142, 0.000000, 0.000000, 0.000000
7.630750,0.000000,0.000000,0.000000,0.000000,0.000000,0.000000,-0.000000,0.000000,-0.001977,-0.000046,0.000043,0.000673,-0.000000,-0.000001,-0.000004,2.701818, 0.955720, 0.119574, 0.002661,0.000000, 0.000000, 0.000000, 0.775136, 0.631615, 0.012142, 0.000000, 0.000000, 0.000000
7.645855,0.000000,0.000000,0.000000,0.000000,0.000000,0.000000,-0.000000,0.000000,-0.004877,-0.000046,0.000043,0.000673,-0.000000,-0.000001,-0.000004,2.701818, 0.955720, 0.119574, 0.005199,0.000000, 0.000000, 0.000000, 0.775136, 0.631615, 0.012142, 0.000000, 0.000000, 0.000000
7.681423,0.000000,0.000000,0.000000,0.000000,0.000000,0.000000,-0.000000,0.000000,-0.002746,-0.000141,0.000151,0.001286,-0.000000,-0.000000,-0.000002,2.701818, 0.955720, 0.119575, 0.002509,0.000000, 0.000000, 0.000000, 0.775136, 0.631615, 0.012144, 0.000000, 0.000000, 0.000000
7.696414,0.000000,0.000000,0.000000,0.000000,0.000000,0.000000,-0.000000,0.000000,-0.003254,-0.000039,0.000044,0.000215,-0.000000,-0.000000,-0.000001,2.701818, 0.955720, 0.119575, 0.003310,0.000000, 0.000000, 0.000000, 0.775136, 0.631615, 0.012145, 0.000000, 0.000000, 0.000000
7.711336,0.000000,0.000000,0.000000,0.000000,0.000000,0.000000,-0.000000,0.000000,-0.005444,-0.000023,0.000028,0.000041,-0.000000,-0.000000,0.000000,2.701818, 0.955720, 0.119575, 0.005687,0.000000, 0.000000, 0.000000, 0.775136, 0.631615, 0.012146, 0.000000, 0.000000, 0.000000
7.728390,0.000000,0.000000,0.000000,0.000000,0.000000,0.000000,-0.000000,0.000000,-0.004462,-0.000016,0.000021,-0.000049,-0.000000,-0.000000,0.000001,2.701818, 0.955720, 0.119575, 0.004353,0.000000, 0.000000, 0.000000, 0.775136, 0.631615, 0.012147, 0.000000, 0.000000, 0.000000
7.786911,0.000000,0.000000,0.000000,0.000000,0.000000,0.000000,-0.000000,0.000000,-0.010808,-0.000066,0.000107,-0.001173,-0.000000,-0.000000,0.000003,2.701818, 0.955720, 0.119575, 0.011513,0.000000, 0.000000, 0.000000, 0.775136, 0.631615, 0.012149, 0.000000, 0.000000, 0.000000
7.802301,0.000000,0.000000,0.000000,0.000000,0.000000,0.000000,-0.000000,0.000000,-0.009796,-0.000017,0.000030,-0.000437,-0.000000,-0.000000,0.000003,2.701818, 0.955720, 0.119574, 0.009684,0.000000, 0.000000, 0.000000, 0.775136, 0.631615, 0.012150, 0.000000, 0.000000, 0.000000
7.817480,0.000000,0.000000,0.000000,0.000000,0.000000,0.000000,-0.000000,0.000000,-0.002900,-0.000010,0.000019,-0.000348,-0.000000,-0.000000,0.000004,2.701818, 0.955720, 0.119574, 0.002134,0.000000, 0.000000, 0.000000, 0.775136, 0.631615, 0.012151, 0.000000, 0.000000, 0.000000
7.832850,0.000000,0.000000,0.000000,0.000000,0.000000,0.000000,-0.000000,0.000000,-0.003709,-0.000010,0.000019,-0.000348,-0.000000,-0.000000,0.000004,2.701818, 0.955720, 0.119574, 0.003799,0.000000, 0.000000, 0.000000, 0.775136, 0.631615, 0.012151, 0.000000, 0.000000, 0.000000
7.872571,0.000000,0.000000,0.000000,0.000000,0.000000,0.000000,-0.000000,0.000000,0.004732,-0.000027,0.000078,-0.002173,-0.000000,-0.000000,0.000005,2.701818, 0.955720, 0.119574, -0.005670,0.000000, 0.000000, 0.000000, 0.775136, 0.631615, 0.012153, 0.000000, 0.000000, 0.000000
7.887861,0.000000,0.000000,0.000000,0.000000,0.000000,0.000000,-0.000000,0.000000,0.000691,-0.000005,0.000016,-0.000479,-0.000000,-0.000000,0.000005,2.701818, 0.955720, 0.119574, -0.000242,0.000000, 0.000000, 0.000000, 0.775136, 0.631615, 0.012154, 0.000000, 0.000000, 0.000000
7.915622,0.000000,0.000000,0.000000,0.000000,0.000000,0.000000,-0.000000,0.000000,0.006104,-0.000005,0.000016,-0.000470,-0.000000,-0.000000,0.000005,2.701818, 0.955720, 0.119574, -0.006706,0.000000, 0.000000, 0.000000, 0.775136, 0.631615, 0.012155, 0.000000, 0.000000, 0.000000
7.930995,0.000000,0.000000,0.000000,0.000000,0.000000,0.000000,-0.000000,0.000000,-0.000887,-0.000006,0.000016,-0.000463,-0.000000,-0.000000,0.000005,2.701818, 0.955720, 0.119574, 0.001664,0.000000, 0.000000, 0.000000, 0.775136, 0.631615, 0.012156, 0.000000, 0.000000, 0.000000
7.948283,0.000000,0.000000,0.000000,0.000000,0.000000,0.000000,-0.000000,0.000000,0.000668,-0.000005,0.000016,-0.000443,-0.000000,-0.000000,0.000004,2.701818, 0.955720, 0.119574, -0.000841,0.000000, 0.000000, 0.000000, 0.775136, 0.631615, 0.012157, 0.000000, 0.000000, 0.000000
7.963291,0.000000,0.000000,0.000000,0.000000,0.000000,0.000000,-0.000000,0.000000,-0.004573,-0.000005,0.000016,-0.000443,-0.000000,-0.000000,0.000004,2.701818, 0.955720, 0.119574, 0.005156,0.000000, 0.000000, 0.000000, 0.775136, 0.631615, 0.012157, 0.000000, 0.000000, 0.000000
7.979253,0.000000,0.000000,0.000000,0.000000,0.000000,0.000000,-0.000000,0.000000,-0.002298,-0.000005,0.000015,-0.000427,-0.000000,-0.000000,0.000004,2.701818, 0.955720, 0.119574, 0.002045,0.000000, 0.000000, 0.000000, 0.775136, 0.631615, 0.012157, 0.000000, 0.000000, 0.000000
7.994236,0.000000,0.000000,0.000000,0.000000,0.000000,0.000000,-0.000000,0.000000,-0.004848,-0.000006,0.000016,-0.000422,-0.000000,-0.000000,0.000004,2.701818, 0.955720, 0.119574, 0.005132,0.000000, 0.000000, 0.000000, 0.775136, 0.631615, 0.012158, 0.000000, 0.000000, 0.000000
8.032142,0.000000,0.000000,0.000000,0.000000,0.000000,0.000000,-0.000000,0.000000,-0.007189,-0.000003,0.000008,-0.000199,-0.000000,-0.000000,0.000004,2.701818, 0.955720, 0.119573, 0.007449,0.000000, 0.000000, 0.000000, 0.775136, 0.631615, 0.012158, 0.000000, 0.000000, 0.000000
8.050672,0.000000,0.000000,0.000000,0.000000,0.000000,0.000000,-0.000000,0.000000,-0.004645,-0.000009,0.000018,-0.000333,-0.000000,-0.000000,0.000003,2.701818, 0.955720, 0.119573, 0.004362,0.000000, 0.000000, 0.000000, 0.775136, 0.631615, 0.012159, 0.000000, 0.000000, 0.000000
8.069557,0.000000,0.000000,0.000000,0.000000,0.000000,0.000000,-0.000000,0.000000,-0.003023,-0.000009,0.000018,-0.000333,-0.000000,-0.000000,0.000003,2.701818, 0.955720, 0.119573, 0.002842,0.000000, 0.000000, 0.000000, 0.775136, 0.631615, 0.012159, 0.000000, 0.000000, 0.000000
8.088805,0.000000,0.000000,0.000000,0.000000,0.000000,0.000000,-0.000000,0.000000,-0.005029,-0.000009,0.000015,-0.000227,-0.000000,-0.000000,0.000002,2.701818, 0.955720, 0.119573, 0.005252,0.000000, 0.000000, 0.000000, 0.775136, 0.631615, 0.012159, 0.000000, 0.000000, 0.000000
8.138836,0.000000,0.000000,0.000000,0.000000,0.000000,0.000000,-0.000000,0.000000,-0.005052,-0.000049,0.000068,-0.000214,-0.000000,-0.000000,0.000000,2.701818, 0.955720, 0.119573, 0.005055,0.000000, 0.000000, 0.000000, 0.775136, 0.631615, 0.012159, 0.000000, 0.000000, 0.000000
8.158253,0.000000,0.000000,0.000000,0.000000,0.000000,0.000000,-0.000000,0.000000,-0.000917,-0.000012,0.000015,0.000012,-0.000000,-0.000000,-0.000000,2.701818, 0.955720, 0.119573, 0.000458,0.000000, 0.000000, 0.000000, 0.775136, 0.631615, 0.012158, 0.000000, 0.000000, 0.000000
8.177096,0.000000,0.000000,0.000000,0.000000,0.000000,0.000000,-0.000000,0.000000,0.008475,-0.000012,0.000014,0.000060,0.000000,-0.000000,-0.000001,2.701818, 0.955720, 0.119573, -0.009519,0.000000, 0.000000, 0.000000, 0.775136, 0.631615, 0.012158, 0.000000, 0.000000, 0.000000
8.196257,0.000000,0.000000,0.000000,0.000000,0.000000,0.000000,-0.000000,0.000000,0.004706,-0.000017,0.000019,0.000144,0.000000,-0.000000,-0.000001,2.701818, 0.955720, 0.119573, -0.004287,0.000000, 0.000000, 0.000000, 0.775136, 0.631615, 0.012158, 0.000000, 0.000000, 0.000000
8.213709,0.000000,0.000000,0.000000,0.000000,0.000000,0.000000,-0.000000,0.000000,0.003132,-0.000015,0.000016,0.000175,0.000000,-0.000000,-0.000002,2.701818, 0.955720, 0.119573, -0.002958,0.000000, 0.000000, 0.000000, 0.775136, 0.631615, 0.012157, 0.000000, 0.000000, 0.000000
8.229509,0.000000,0.000000,0.000000,0.000000,0.000000,0.000000,-0.000000,0.000000,0.002351,-0.000015,0.000016,0.000175,0.000000,-0.000000,-0.000002,2.701818, 0.955720, 0.119573, -0.002265,0.000000, 0.000000, 0.000000, 0.775136, 0.631615, 0.012157, 0.000000, 0.000000, 0.000000
8.244924,0.000000,0.000000,0.000000,0.000000,0.000000,0.000000,-0.000000,0.000000,0.004942,-0.000016,0.000016,0.000226,0.000000,-0.000000,-0.000003,2.701818, 0.955720, 0.119573, -0.005230,0.000000, 0.000000, 0.000000, 0.775136, 0.631615, 0.012156, 0.000000, 0.000000, 0.000000
8.262410,0.000000,0.000000,0.000000,0.000000,0.000000,0.000000,-0.000000,0.000000,-0.000957,-0.000017,0.000016,0.000265,0.000000,-0.000000,-0.000003,2.701818, 0.955720, 0.119573, 0.001612,0.000000, 0.000000, 0.000000, 0.775136, 0.631615, 0.012156, 0.000000, 0.000000, 0.000000
8.308666,0.000000,0.000000,0.000000,0.000000,0.000000,0.000000,-0.000000,0.000000,-0.002887,-0.000061,0.000054,0.001157,0.000000,-0.000000,-0.000003,2.701818, 0.955720, 0.119574, 0.003102,0.000000, 0.000000, 0.000000, 0.775136, 0.631615, 0.012153, 0.000000, 0.000000, 0.000000
8.343093,0.000000,0.000000,0.000000,0.000000,0.000000,0.000000,-0.000000,0.000000,0.003556,-0.000061,0.000054,0.001157,0.000000,-0.000000,-0.000003,2.701818, 0.955720, 0.119574, -0.004272,0.000000, 0.000000, 0.000000, 0.775136, 0.631615, 0.012153, 0.000000, 0.000000, 0.000000
8.366565,0.000000,0.000000,0.000000,0.000000,0.000000,0.000000,-0.000000,0.000000,0.000792,-0.000061,0.000054,0.001157,0.000000,-0.000000,-0.000003,2.701818, 0.955720, 0.119574, -0.000485,0.000000, 0.000000, 0.000000, 0.775136, 0.631615, 0.012153, 0.000000, 0.000000, 0.000000
8.417365,0.000000,0.000000,0.000000,0.000000,0.000000,0.000000,-0.000000,0.000000,0.005509,-0.000061,0.000054,0.001157,0.000000,-0.000000,-0.000003,2.701818, 0.955720, 0.119574, -0.006033,0.000000, 0.000000, 0.000000, 0.775136, 0.631615, 0.012153, 0.000000, 0.000000, 0.000000
8.434526,0.000000,0.000000,0.000000,0.000000,0.000000,0.000000,-0.000000,0.000000,-0.002579,-0.000061,0.000054,0.001157,0.000000,-0.000000,-0.000003,2.701818, 0.955720, 0.119574, 0.003477,0.000000, 0.000000, 0.000000, 0.775136, 0.631615, 0.012153, 0.000000, 0.000000, 0.000000
8.454219,0.000000,0.000000,0.000000,0.000000,0.000000,0.000000,-0.000000,0.000000,-0.003615,-0.000061,0.000054,0.001157,0.000000,-0.000000,-0.000003,2.701818, 0.955720, 0.119574, 0.003730,0.000000, 0.000000, 0.000000, 0.775136, 0.631615, 0.012153, 0.000000, 0.000000, 0.000000
8.477131,0.000000,0.000000,0.000000,0.000000,0.000000,0.000000,-0.000000,0.000000,-0.001538,-0.000061,0.000054,0.001157,0.000000,-0.000000,-0.000003,2.701818, 0.955720, 0.119574, 0.001307,0.000000, 0.000000, 0.000000, 0.775136, 0.631615, 0.012153, 0.000000, 0.000000, 0.000000
8.506756,0.000000,0.000000,0.000000,0.000000,0.000000,0.000000,-0.000000,0.000000,0.000886,-0.000061,0.000054,0.001157,0.000000,-0.000000,-0.000003,2.701818, 0.955720, 0.119574, -0.001156,0.000000, 0.000000, 0.000000, 0.775136, 0.631615, 0.012153, 0.000000, 0.000000, 0.000000
8.563141,0.000000,0.000000,0.000000,0.000000,0.000000,0.000000,-0.000000,0.000000,0.001085,-0.000061,0.000054,0.001157,0.000000,-0.000000,-0.000003,2.701818, 0.955720, 0.119574, 0.006003,0.000000, 0.000000, 0.000000, 0.775136, 0.631615, 0.012153, 0.000000, 0.000000, 0.000000
8.595991,0.000000,0.000000,0.000000,0.000000,0.000000,0.000000,-0.000000,0.000000,-0.007011,-0.000061,0.000054,0.001157,0.000000,-0.000000,-0.000003,2.701818, 0.955720, 0.119574, 0.007911,0.000000, 0.000000, 0.000000, 0.775136, 0.631615, 0.012153, 0.000000, 0.000000, 0.000000
8.654621,0.000000,0.000000,0.000000,0.000000,0.000000,0.000000,-0.000000,0.000000,-0.002629,-0.000061,0.000054,0.001157,0.000000,-0.000000,-0.000003,2.701818, 0.955720, 0.119574, 0.002142,0.000000, 0.000000, 0.000000, 0.775136, 0.631615, 0.012153, 0.000000, 0.000000, 0.000000
8.683039,0.000000,0.000000,0.000000,0.000000,0.000000,0.000000,-0.000000,0.000000,-0.000813,-0.000061,0.000054,0.001157,0.000000,-0.000000,-0.000003,2.701818, 0.955720, 0.119574, 0.000611,0.000000, 0.000000, 0.000000, 0.775136, 0.631615, 0.012153, 0.000000, 0.000000, 0.000000
8.714355,0.000000,0.000000,0.000000,0.000000,0.000000,0.000000,-0.000000,0.000000,-0.000627,-0.000061,0.000054,0.001157,0.000000,-0.000000,-0.000003,2.701818, 0.955720, 0.119574, 0.000607,0.000000, 0.000000, 0.000000, 0.775136, 0.631615, 0.012153, 0.000000, 0.000000, 0.000000
8.746194,0.000000,0.000000,0.000000,0.000000,0.000000,0.000000,-0.000000,0.000000,-0.001366,-0.000061,0.000054,0.001157,0.000000,-0.000000,-0.000003,2.701818, 0.955720, 0.119574, 0.001448,0.000000, 0.000000, 0.000000, 0.775136, 0.631615, 0.012153, 0.000000, 0.000000, 0.000000
8.821432,0.000000,0.000000,0.000000,0.000000,0.000000,0.000000,-0.000000,0.000000,0.000791,-0.000061,0.000054,0.001157,0.000000,-0.000000,-0.000003,2.701818, 0.955720, 0.119574, -0.001031,0.000000, 0.000000, 0.000000, 0.775136, 0.631615, 0.012153, 0.000000, 0.000000, 0.000000
8.851579,0.000000,0.000000,0.000000,0.000000,0.000000,0.000000,-0.000000,0.000000,0.001722,-0.000061,0.000054,0.001157,0.000000,-0.000000,-0.000003,2.701818, 0.955720, 0.119574, -0.001826,0.000000, 0.000000, 0.000000, 0.775136, 0.631615, 0.012153, 0.000000, 0.000000, 0.000000
8.878361,0.000000,0.000000,0.000000,0.000000,0.000000,0.000000,-0.000000,0.000000,-0.004357,-0.000061,0.000054,0.001157,0.000000,-0.000000,-0.000003,2.701818, 0.955720, 0.119574, 0.005033,0.000000, 0.000000, 0.000000, 0.775136, 0.631615, 0.012153, 0.000000, 0.000000, 0.000000
8.955008,0.000000,0.000000,0.000000,0.000000,0.000000,0.000000,-0.000000,0.000000,0.003160,-0.000061,0.000054,0.001157,0.000000,-0.000000,-0.000003,2.701818, 0.955720, 0.119574, -0.003995,0.000000, 0.000000, 0.000000, 0.775136, 0.631615, 0.012153, 0.000000, 0.000000, 0.000000
8.984714,0.000000,0.000000,0.000000,0.000000,0.000000,0.000000,-0.000000,0.000000,-0.003285,-0.000061,0.000054,0.001157,0.000000,-0.000000,-0.000003,2.701818, 0.955720, 0.119574, 0.004001,0.000000, 0.000000, 0.000000, 0.775136, 0.631615, 0.012153, 0.000000, 0.000000, 0.000000
9.030569,0.000000,0.000000,0.000000,0.000000,0.000000,0.000000,-0.000000,0.000000,-0.007770,-0.000061,0.000054,0.001157,0.000000,-0.000000,-0.000003,2.701818, 0.955720, 0.119574, 0.008268,0.000000, 0.000000, 0.000000, 0.775136, 0.631615, 0.012153, 0.000000, 0.000000, 0.000000
9.050504,0.000000,0.000000,0.000000,0.000000,0.000000,0.000000,-0.000000,0.000000,0.003946,-0.000061,0.000054,0.001157,0.000000,-0.000000,-0.000003,2.701818, 0.955720, 0.119574, -0.005247,0.000000, 0.000000, 0.000000, 0.775136, 0.631615, 0.012153, 0.000000, 0.000000, 0.000000
9.072678,0.000000,0.000000,0.000000,0.000000,0.000000,0.000000,-0.000000,0.000000,-0.007816,-0.000480,0.007591,-0.396177,-0.000000,-0.000000,0.000006,2.701818, 0.955721, 0.119570, 0.009123,0.000000, 0.000000, 0.000000, 0.775136, 0.631615, 0.012146, 0.000000, 0.000000, 0.000000
9.114213,0.000000,0.000000,0.000000,0.000000,0.000000,0.000000,-0.000000,0.000000,0.001842,-0.000021,0.000035,-0.000585,-0.000000,-0.000000,0.000002,2.701818, 0.955721, 0.119570, -0.002915,0.000000, 0.000000, 0.000000, 0.775136, 0.631615, 0.012149, 0.000000, 0.000000, 0.000000
9.144329,0.000000,0.000000,0.000000,0.000000,0.000000,0.000000,-0.000000,0.000000,0.003618,-0.000020,0.000027,-0.000229,-0.000000,-0.000000,0.000001,2.701818, 0.955721, 0.119570, -0.003815,0.000000, 0.000000, 0.000000, 0.775136, 0.631615, 0.012150, 0.000000, 0.000000, 0.000000
9.206888,0.000000,0.000000,0.000000,0.000000,0.000000,0.000000,-0.000000,0.000000,0.006221,-0.000021,0.000021,0.000147,-0.000000,-0.000000,-0.000003,2.701818, 0.955721, 0.119570, -0.006510,0.000000, 0.000000, 0.000000, 0.775136, 0.631615, 0.012152, 0.000000, 0.000000, 0.000000
9.235235,0.000000,0.000000,0.000000,0.000000,0.000000,0.000000,-0.000000,0.000000,-0.001364,-0.000058,0.000050,0.000998,0.000000,-0.000001,-0.000006,2.701818, 0.955721, 0.119570, 0.002207,0.000000, 0.000000, 0.000000, 0.775136, 0.631615, 0.012153, 0.000000, 0.000000, 0.000000
9.290041,0.000000,0.000000,0.000000,0.000000,0.000000,0.000000,-0.000000,0.000000,-0.008395,-0.000109,0.000080,0.002667,0.000000,-0.000001,-0.000011,2.701818, 0.955721, 0.119570, 0.009177,0.000000, 0.000000, 0.000000, 0.775136, 0.631615, 0.012155, 0.000000, 0.000000, 0.000000
9.314659,0.000000,0.000000,0.000000,0.000000,0.000000,0.000000,-0.000000,0.000000,-0.004011,-0.000070,0.000050,0.001808,0.000000,-0.000001,-0.000013,2.701818, 0.955721, 0.119571, 0.003524,0.000000, 0.000000, 0.000000, 0.775136, 0.631615, 0.012156, 0.000000, 0.000000, 0.000000
9.334055,0.000000,0.000000,0.000000,0.000000,0.000000,0.000000,-0.000000,0.000000,-0.001391,-0.000044,0.000031,0.001208,0.000000,-0.000001,-0.000014,2.701818, 0.955721, 0.119571, 0.001100,0.000000, 0.000000, 0.000000, 0.775136, 0.631615, 0.012156, 0.000000, 0.000000, 0.000000
9.417449,0.000000,0.000000,0.000000,0.000000,0.000000,0.000000,-0.000000,0.000000,-0.001541,-0.000228,0.000149,0.006807,0.000000,-0.000001,-0.000018,2.701818, 0.955721, 0.119572, 0.001558,0.000000, 0.000000, 0.000000, 0.775136, 0.631615, 0.012157, 0.000000, 0.000000, 0.000000
9.440248,0.000000,0.000000,0.000000,0.000000,0.000000,0.000000,-0.000000,0.000000,0.002922,-0.000183,0.000115,0.005786,0.000000,-0.000001,-0.000020,2.701818, 0.955721, 0.119573, -0.003418,0.000000, 0.000000, 0.000000, 0.775136, 0.631615, 0.012157, 0.000000, 0.000000, 0.000000
9.467136,0.000000,0.000000,0.000000,0.000000,0.000000,0.000000,-0.000000,0.000000,0.004070,-0.000059,0.000037,0.001903,0.000000,-0.000001,-0.000021,2.701818, 0.955721, 0.119573, -0.004197,0.000000, 0.000000, 0.000000, 0.775136, 0.631615, 0.012156, 0.000000, 0.000000, 0.000000
9.497424,0.000000,0.000000,0.000000,0.000000,0.000000,0.000000,-0.000000,0.000000,0.000654,-0.000075,0.000046,0.002429,0.000000,-0.000001,-0.000021,2.701818, 0.955721, 0.119574, -0.000275,0.000000, 0.000000, 0.000000, 0.775136, 0.631615, 0.012156, 0.000000, 0.000000, 0.000000
9.548322,0.000000,0.000000,0.000000,0.000000,0.000000,0.000000,-0.000000,0.000000,0.005632,-0.000146,0.000088,0.004821,0.000000,-0.000001,-0.000021,2.701818, 0.955721, 0.119575, -0.006185,0.000000, 0.000000, 0.000000, 0.775136, 0.631615, 0.012155, 0.000000, 0.000000, 0.000000
9.573340,0.000000,0.000000,0.000000,0.000000,0.000000,0.000000,-0.000000,0.000000,-0.005102,-0.000086,0.000052,0.002844,0.000000,-0.000001,-0.000020,2.701818, 0.955721, 0.119576, 0.006295,0.000000, 0.000000, 0.000000, 0.775136, 0.631615, 0.012154, 0.000000, 0.000000, 0.000000
9.595835,0.000000,0.000000,0.000000,0.000000,0.000000,0.000000,-0.000000,0.000000,-0.002320,-0.000056,0.000034,0.001848,0.000000,-0.000001,-0.000019,2.701818, 0.955721, 0.119576, 0.002010,0.000000, 0.000000, 0.000000, 0.775136, 0.631615, 0.012154, 0.000000, 0.000000, 0.000000
9.633583,0.000000,0.000000,0.000000,0.000000,0.000000,0.000000,-0.000000,0.000000,-0.000224,-0.000055,0.000034,0.001792,0.000000,-0.000001,-0.000018,2.701818, 0.955721, 0.119577, -0.000008,0.000000, 0.000000, 0.000000, 0.775136, 0.631615, 0.012152, 0.000000, 0.000000, 0.000000
9.672538,0.000000,0.000000,0.000000,0.000000,0.000000,0.000000,-0.000000,0.000000,0.000367,-0.000048,0.000032,0.001521,0.000000,-0.000001,-0.000013,2.701818, 0.955721, 0.119578, -0.000433,0.000000, 0.000000, 0.000000, 0.775136, 0.631615, 0.012151, 0.000000, 0.000000, 0.000000
9.727154,0.000000,0.000000,0.000000,0.000000,0.000000,0.000000,-0.000000,0.000000,-0.011434,-0.000071,0.000055,0.002051,0.000000,-0.000000,-0.000007,2.701818, 0.955721, 0.119578, 0.012745,0.000000, 0.000000, 0.000000, 0.775136, 0.631615, 0.012150, 0.000000, 0.000000, 0.000000
9.746684,0.000000,0.000000,0.000000,0.000000,0.000000,0.000000,-0.000000,0.000000,-0.002806,-0.000049,0.000041,0.001241,0.000000,-0.000000,-0.000005,2.701818, 0.955721, 0.119578, 0.001848,0.000000, 0.000000, 0.000000, 0.775136, 0.631615, 0.012149, 0.000000, 0.000000, 0.000000
9.778183,0.000000,0.000000,0.000000,0.000000,0.000000,0.000000,-0.000000,0.000000,0.003534,-0.000049,0.000041,0.001241,0.000000,-0.000000,-0.000005,2.701818, 0.955721, 0.119578, -0.004239,0.000000, 0.000000, 0.000000, 0.775136, 0.631615, 0.012149, 0.000000, 0.000000, 0.000000
9.812860,0.000000,0.000000,0.000000,0.000000,0.000000,0.000000,-0.000000,0.000000,-0.002337,-0.000049,0.000041,0.001241,0.000000,-0.000000,-0.000005,2.701818, 0.955721, 0.119578, 0.002990,0.000000, 0.000000, 0.000000, 0.775136, 0.631615, 0.012149, 0.000000, 0.000000, 0.000000
9.836022,0.000000,0.000000,0.000000,0.000000,0.000000,0.000000,-0.000000,0.000000,0.005779,-0.000049,0.000041,0.001241,0.000000,-0.000000,-0.000005,2.701818, 0.955721, 0.119578, -0.006681,0.000000, 0.000000, 0.000000, 0.775136, 0.631615, 0.012149, 0.000000, 0.000000, 0.000000
9.857496,0.000000,0.000000,0.000000,0.000000,0.000000,0.000000,-0.000000,0.000000,0.005003,-0.000049,0.000041,0.001241,0.000000,-0.000000,-0.000005,2.701818, 0.955721, 0.119578, -0.004917,0.000000, 0.000000, 0.000000, 0.775136, 0.631615, 0.012149, 0.000000, 0.000000, 0.000000
9.877490,0.000000,0.000000,0.000000,0.000000,0.000000,0.000000,-0.000000,0.000000,0.006079,-0.000049,0.000041,0.001241,0.000000,-0.000000,-0.000005,2.701818, 0.955721, 0.119578, -0.006198,0.000000, 0.000000, 0.000000, 0.775136, 0.631615, 0.012149, 0.000000, 0.000000, 0.000000
9.902854,0.000000,0.000000,0.000000,0.000000,0.000000,0.000000,-0.000000,0.000000,0.001830,-0.000049,0.000041,0.001241,0.000000,-0.000000,-0.000005,2.701818, 0.955721, 0.119578, -0.001358,0.000000, 0.000000, 0.000000, 0.775136, 0.631615, 0.012149, 0.000000, 0.000000, 0.000000
9.922595,0.000000,0.000000,0.000000,0.000000,0.000000,0.000000,-0.000000,0.000000,0.001015,-0.000049,0.000041,0.001241,0.000000,-0.000000,-0.000005,2.701818, 0.955721, 0.119578, -0.000925,0.000000, 0.000000, 0.000000, 0.775136, 0.631615, 0.012149, 0.000000, 0.000000, 0.000000
9.953511,0.000000,0.000000,0.000000,0.000000,0.000000,0.000000,-0.000000,0.000000,0.001536,-0.000049,0.000041,0.001241,0.000000,-0.000000,-0.000005,2.701818, 0.955721, 0.119578, -0.001593,0.000000, 0.000000, 0.000000, 0.775136, 0.631615, 0.012149, 0.000000, 0.000000, 0.000000
9.987181,0.000000,0.000000,0.000000,0.000000,0.000000,0.000000,-0.000000,0.000000,-0.002141,-0.000049,0.000041,0.001241,0.000000,-0.000000,-0.000005,2.701818, 0.955721, 0.119578, 0.002549,0.000000, 0.000000, 0.000000, 0.775136, 0.631615, 0.012149, 0.000000, 0.000000, 0.000000
10.026860,0.000000,0.000000,0.000000,0.000000,0.000000,0.000000,-0.000000,0.000000,-0.004827,-0.000049,0.000041,0.001241,0.000000,-0.000000,-0.000005,2.701818, 0.955721, 0.119578, 0.005125,0.000000, 0.000000, 0.000000, 0.775136, 0.631615, 0.012149, 0.000000, 0.000000, 0.000000
10.044343,0.000000,0.000000,0.000000,0.000000,0.000000,0.000000,-0.000000,0.000000,-0.007957,-0.000049,0.000041,0.001241,0.000000,-0.000000,-0.000005,2.701818, 0.955721, 0.119578, 0.008305,0.000000, 0.000000, 0.000000, 0.775136, 0.631615, 0.012149, 0.000000, 0.000000, 0.000000
10.064834,0.000000,0.000000,0.000000,0.000000,0.000000,0.000000,-0.000000,0.000000,-0.007948,0.030624,-0.009630,-1.447423,-0.000001,0.000000,0.000029,2.701818, 0.955721, 0.119573, 0.007947,0.000000, 0.000000, 0.000000, 0.775136, 0.631615, 0.012143, 0.000000, 0.000000, 0.000000
10.111801,0.000000,0.000000,0.000000,0.000000,0.000000,0.000000,-0.000000,0.000000,-0.001187,0.000270,-0.000087,-0.012746,-0.000001,0.000000,0.000029,2.701818, 0.955721, 0.119571, 0.000436,0.000000, 0.000000, 0.000000, 0.775136, 0.631615, 0.012143, 0.000000, 0.000000, 0.000000
10.129960,0.000000,0.000000,0.000000,0.000000,0.000000,0.000000,-0.000000,0.000000,-0.014903,0.000057,-0.000019,-0.002680,-0.000001,0.000000,0.000029,2.701818, 0.955721, 0.119570, 0.016427,0.000000, 0.000000, 0.000000, 0.775136, 0.631615, 0.012143, 0.000000, 0.000000, 0.000000
10.158169,0.000000,0.000000,0.000000,0.000000,0.000000,0.000000,-0.000000,0.000000,-0.001961,0.000062,-0.000020,-0.002940,-0.000001,0.000000,0.000028,2.701818, 0.955721, 0.119570, 0.000523,0.000000, 0.000000, 0.000000, 0.775136, 0.631615, 0.012143, 0.000000, 0.000000, 0.000000
10.176301,0.000000,0.000000,0.000000,0.000000,0.000000,0.000000,-0.000000,0.000000,0.001026,0.000054,-0.000018,-0.002601,-0.000001,0.000000,0.000027,2.701818, 0.955721, 0.119569, -0.001358,0.000000, 0.000000, 0.000000, 0.775136, 0.631615, 0.012143, 0.000000, 0.000000, 0.000000
10.193294,0.000000,0.000000,0.000000,0.000000,0.000000,0.000000,-0.000000,0.000000,0.001020,0.000054,-0.000018,-0.002601,-0.000001,0.000000,0.000027,2.701818, 0.955721, 0.119569, -0.001020,0.000000, 0.000000, 0.000000, 0.775136, 0.631615, 0.012143, 0.000000, 0.000000, 0.000000
10.250308,0.000000,0.000000,0.000000,0.000000,0.000000,0.000000,-0.000000,0.000000,0.001365,0.000092,-0.000024,-0.005056,-0.000000,0.000000,0.000018,2.701818, 0.955721, 0.119568, -0.001403,0.000000, 0.000000, 0.000000, 0.775136, 0.631615, 0.012144, 0.000000, 0.000000, 0.000000
10.266719,0.000000,0.000000,0.000000,0.000000,0.000000,0.000000,-0.000000,0.000000,-0.001785,0.000025,-0.000005,-0.001558,-0.000000,0.000000,0.000014,2.701818, 0.955721, 0.119567, 0.002135,0.000000, 0.000000, 0.000000, 0.775136, 0.631615, 0.012144, 0.000000, 0.000000, 0.000000
10.282428,0.000000,0.000000,0.000000,0.000000,0.000000,0.000000,-0.000000,0.000000,-0.002100,0.000025,-0.000005,-0.001558,-0.000000,0.000000,0.000014,2.701818, 0.955721, 0.119567, 0.002135,0.000000, 0.000000, 0.000000, 0.775136, 0.631615, 0.012144, 0.000000, 0.000000, 0.000000
10.310335,0.000000,0.000000,0.000000,0.000000,0.000000,0.000000,-0.000000,0.000000,-0.005196,0.000009,-0.000000,-0.000648,-0.000000,-0.000000,0.000011,2.701818, 0.955721, 0.119567, 0.005540,0.000000, 0.000000, 0.000000, 0.775136, 0.631615, 0.012145, 0.000000, 0.000000, 0.000000
10.326817,0.000000,0.000000,0.000000,0.000000,0.000000,0.000000,-0.000000,0.000000,-0.001947,0.000018,0.000012,-0.002280,-0.000000,-0.000000,0.000007,2.701818, 0.955721, 0.119567, 0.001586,0.000000, 0.000000, 0.000000, 0.775136, 0.631615, 0.012145, 0.000000, 0.000000, 0.000000
10.342774,0.000000,0.000000,0.000000,0.000000,0.000000,0.000000,-0.000000,0.000000,0.000659,-0.000003,0.000010,-0.000520,-0.000000,-0.000000,0.000003,2.701818, 0.955721, 0.119567, -0.000949,0.000000, 0.000000, 0.000000, 0.775136, 0.631615, 0.012145, 0.000000, 0.000000, 0.000000
10.359619,0.000000,0.000000,0.000000,0.000000,0.000000,0.000000,-0.000000,0.000000,0.000403,-0.000013,0.000015,-0.000101,-0.000000,-0.000000,-0.000001,2.701818, 0.955721, 0.119567, -0.000374,0.000000, 0.000000, 0.000000, 0.775136, 0.631615, 0.012146, 0.000000, 0.000000, 0.000000
